"Time (s)","Gyroscope x (rad/s)","Gyroscope y (rad/s)","Gyroscope z (rad/s)"
7.137195000E-3,1.597896684E-3,3.728425596E-3,5.858954508E-3
9.151355000E-3,1.597896684E-3,3.728425596E-3,5.858954508E-3
1.110448000E-2,1.597896684E-3,3.728425596E-3,5.858954508E-3
1.308812300E-2,1.597896684E-3,3.728425596E-3,5.858954508E-3
1.507176500E-2,1.597896684E-3,3.728425596E-3,5.858954508E-3
1.708592500E-2,1.597896684E-3,3.728425596E-3,5.858954508E-3
1.903905000E-2,1.597896684E-3,3.728425596E-3,5.858954508E-3
2.102269300E-2,1.597896684E-3,3.728425596E-3,5.858954508E-3
2.303685300E-2,1.597896684E-3,3.728425596E-3,5.858954508E-3
2.505101300E-2,1.597896684E-3,3.728425596E-3,5.858954508E-3
2.700413800E-2,1.597896684E-3,3.728425596E-3,5.858954508E-3
2.901829800E-2,1.597896684E-3,3.728425596E-3,5.858954508E-3
3.100194100E-2,1.597896684E-3,3.728425596E-3,5.858954508E-3
3.298558400E-2,1.597896684E-3,3.728425596E-3,5.858954508E-3
3.496922600E-2,1.597896684E-3,3.728425596E-3,5.858954508E-3
3.695286900E-2,1.597896684E-3,3.728425596E-3,5.858954508E-3
3.893651100E-2,-5.134574771E-1,-1.810949594E-1,-2.183792181E-2
4.092015400E-2,-5.603290796E-1,-2.071939409E-1,-1.864212751E-2
4.293431400E-2,-6.045376062E-1,-2.226402760E-1,-1.651159860E-2
4.494847400E-2,-6.556702852E-1,-2.167813182E-1,-1.864212751E-2
4.693211700E-2,-7.052050829E-1,-2.151834220E-1,-1.704423130E-2
4.894627700E-2,-7.547398806E-1,-2.173139453E-1,-1.757686399E-2
5.092992000E-2,-8.032094240E-1,-2.178465873E-1,-1.917476021E-2
5.291356200E-2,-8.522115946E-1,-2.247707993E-1,-1.757686399E-2
5.489720500E-2,-8.990831971E-1,-2.364887148E-1,-1.704423130E-2
5.691136500E-2,-9.369000793E-1,-2.428802997E-1,-1.384843793E-2
5.892552500E-2,-9.720538259E-1,-2.444781959E-1,-1.491370238E-2
6.090916800E-2,-9.986854196E-1,-2.439455539E-1,-1.225054078E-2
6.289281000E-2,-1.018392801E0,-2.561961114E-1,-1.171790902E-2
6.493748800E-2,-1.038100243E0,-2.716424465E-1,-1.438106969E-2
6.689061300E-2,-1.055677056E0,-2.876214087E-1,-1.491370238E-2
6.887425500E-2,-1.075384498E0,-3.046656251E-1,-1.544633508E-2
7.088841600E-2,-1.085504532E0,-3.275688291E-1,-1.704423130E-2
7.290257600E-2,-1.095624447E0,-3.472762108E-1,-1.597896591E-2
7.488621800E-2,-1.101483464E0,-3.632551730E-1,-1.757686399E-2
7.690037900E-2,-1.114799261E0,-3.840278387E-1,-1.331580617E-2
7.891453900E-2,-1.124386668E0,-4.032025933E-1,-1.065264456E-2
8.089818100E-2,-1.129180312E0,-4.223773479E-1,-4.261057824E-3
8.288182400E-2,-1.134506702E0,-4.458131790E-1,4.261057824E-3
8.489598400E-2,-1.141430855E0,-4.665858448E-1,7.989482954E-3
8.684910900E-2,-1.143028736E0,-4.846953154E-1,1.651159860E-2
8.883275200E-2,-1.150485635E0,-5.006743073E-1,2.343581803E-2
9.084691200E-2,-1.159007788E0,-5.246427655E-1,3.089267015E-2
9.286107200E-2,-1.166464567E0,-5.448827744E-1,4.261057824E-2
9.481419700E-2,-1.173921466E0,-5.592638254E-1,5.965480953E-2
9.679783900E-2,-1.177117229E0,-5.672533512E-1,7.456851006E-2
9.881200000E-2,-1.186704636E0,-5.768406987E-1,9.267801046E-2
1.008261600E-1,-1.200020432E0,-5.986786485E-1,1.102548689E-1
1.028098020E-1,-1.214401484E0,-6.231797338E-1,1.272991002E-1
1.048239620E-1,-1.225054145E0,-6.492787004E-1,1.486043930E-1
1.068076050E-1,-1.239967823E0,-6.716492176E-1,1.640507281E-1
1.088217650E-1,-1.254881501E0,-6.913566589E-1,1.794970632E-1
1.108054080E-1,-1.274056315E0,-7.105314136E-1,1.928128600E-1
1.127890500E-1,-1.298024774E0,-7.222493291E-1,2.061286718E-1
1.147726930E-1,-1.318264723E0,-7.259777188E-1,2.162486911E-1
1.167868530E-1,-1.342233181E0,-7.286409140E-1,2.258360684E-1
1.187399780E-1,-1.361940622E0,-7.233145833E-1,2.274339646E-1
1.207236210E-1,-1.383245945E0,-7.169229984E-1,2.322276533E-1
1.227377810E-1,-1.408812284E0,-7.062703371E-1,2.327602804E-1
1.247824590E-1,-1.433313370E0,-6.892260909E-1,2.279665917E-1
1.267355840E-1,-1.458347082E0,-6.732471585E-1,2.221076339E-1
1.287192260E-1,-1.479652286E0,-6.487460732E-1,2.173139453E-1
1.307333860E-1,-1.507349253E0,-6.205165386E-1,2.061286718E-1
1.327475460E-1,-1.534513474E0,-5.874933600E-1,1.896170676E-1
1.347006710E-1,-1.556351423E0,-5.566006899E-1,1.731054783E-1
1.366843140E-1,-1.577656627E0,-5.305017233E-1,1.518001854E-1
1.386984740E-1,-1.597896695E0,-5.065332651E-1,1.310275346E-1
1.407126340E-1,-1.618136764E0,-4.793690145E-1,1.113201380E-1
1.426962770E-1,-1.638376713E0,-4.617921412E-1,9.267801046E-2
1.447104370E-1,-1.660214663E0,-4.415521026E-1,7.456851006E-2
1.466940800E-1,-1.686846256E0,-4.207794666E-1,5.219795927E-2
1.487082400E-1,-1.713477850E0,-3.962783813E-1,3.142530099E-2
1.506918820E-1,-1.735848427E0,-3.707120419E-1,1.171790902E-2
1.526755250E-1,-1.765675783E0,-3.430151641E-1,-5.858954508E-3
1.546896850E-1,-1.789111614E0,-3.163835406E-1,-2.290318534E-2
1.566428100E-1,-1.812014818E0,-2.743056118E-1,-3.941478580E-2
1.586264530E-1,-1.832254887E0,-2.098570913E-1,-5.965480953E-2
1.606406130E-1,-1.848233819E0,-1.315601617E-1,-7.723167539E-2
1.626547730E-1,-1.853560209E0,-5.486112088E-2,-9.374327213E-2
1.646689330E-1,-1.846103311E0,1.597896591E-2,-1.065264493E-1
1.666220580E-1,-1.842907548E0,5.699164793E-2,-1.075917110E-1
1.686362180E-1,-1.838646412E0,1.139832959E-1,-1.107875034E-1
1.706503790E-1,-1.833320141E0,1.603222936E-1,-1.139832959E-1
1.726035040E-1,-1.836515903E0,1.826928556E-1,-1.134506613E-1
1.745871460E-1,-1.842907548E0,1.922802329E-1,-1.113201380E-1
1.766013060E-1,-1.848766446E0,1.896170676E-1,-1.086569726E-1
1.785849490E-1,-1.854092836E0,1.816275865E-1,-1.049285457E-1
1.805685910E-1,-1.861549616E0,1.661812514E-1,-9.427590668E-2
1.825827520E-1,-1.864212751E0,1.480717659E-1,-8.788431436E-2
1.846274290E-1,-1.869006515E0,1.352885813E-1,-8.309062570E-2
1.865805540E-1,-1.866876006E0,1.304948926E-1,-7.669904083E-2
1.885641970E-1,-1.866343379E0,1.219727769E-1,-7.137271762E-2
1.905783570E-1,-1.866876006E0,1.225054115E-1,-6.924218684E-2
1.925925170E-1,-1.863680124E0,1.241033077E-1,-6.764429063E-2
1.945761600E-1,-1.866343379E0,1.230380461E-1,-6.391586363E-2
1.965598020E-1,-1.870604396E0,1.235706806E-1,-6.125270575E-2
1.985739620E-1,-1.876995921E0,1.187769845E-1,-6.444849819E-2
2.005881230E-1,-1.884452820E0,1.150485575E-1,-6.285060197E-2
2.025717650E-1,-1.900431752E0,1.049285457E-1,-6.072007492E-2
2.045859250E-1,-1.911084414E0,1.033306494E-1,-6.391586363E-2
2.065695680E-1,-1.925465465E0,9.374327213E-2,-6.178534031E-2
2.085837280E-1,-1.945172906E0,8.468852192E-2,-6.285060197E-2
2.105978880E-1,-1.966478229E0,8.468852192E-2,-6.285060197E-2
2.125510130E-1,-1.991511941E0,8.415589482E-2,-5.805691332E-2
2.145346560E-1,-2.019208670E0,9.001484513E-2,-5.858954415E-2
2.165488160E-1,-2.044242382E0,9.960222989E-2,-5.858954415E-2
2.185629760E-1,-2.072472095E0,1.107875034E-1,-5.699164793E-2
2.205161010E-1,-2.106560469E0,1.304948926E-1,-5.805691332E-2
2.224997440E-1,-2.135855198E0,1.432780623E-1,-5.805691332E-2
2.245444210E-1,-2.166215181E0,1.629854590E-1,-6.338323653E-2
2.264975460E-1,-2.199771166E0,1.848233789E-1,-6.231797114E-2
2.284811890E-1,-2.229598522E0,2.098570913E-1,-6.072007492E-2
2.304648320E-1,-2.258360624E0,2.364887148E-1,-6.018744037E-2
2.324789920E-1,-2.289785862E0,2.737729549E-1,-5.752427876E-2
2.344626340E-1,-2.316417456E0,3.126551211E-1,-5.912217870E-2
2.364767950E-1,-2.339853287E0,3.536677957E-1,-5.965480953E-2
2.384909550E-1,-2.362223864E0,3.978762627E-1,-5.752427876E-2
2.405051150E-1,-2.373409271E0,4.362258017E-1,-6.178534031E-2
2.424582400E-1,-2.380866051E0,4.783037305E-1,-6.018744037E-2
2.444724000E-1,-2.380866051E0,5.241101384E-1,-6.231797114E-2
2.464560430E-1,-2.373409271E0,5.752428174E-1,-5.752427876E-2
2.484396850E-1,-2.364354372E0,6.146575809E-1,-5.273059011E-2
2.504233280E-1,-2.347310305E0,6.508765817E-1,-4.846953228E-2
2.524374880E-1,-2.327602863E0,6.908239722E-1,-4.420847446E-2
2.544516480E-1,-2.304167032E0,7.313040495E-1,-3.941478580E-2
2.564352910E-1,-2.276470184E0,7.691209316E-1,-3.142530099E-2
2.584189330E-1,-2.242914200E0,8.101336360E-1,-3.089267015E-2
2.604025760E-1,-2.201369047E0,8.490157723E-1,-2.716424316E-2
2.624167360E-1,-2.159823656E0,8.841695189E-1,-2.663161233E-2
2.644308960E-1,-2.112419367E0,9.214537740E-1,-2.024002373E-2
2.663840210E-1,-2.056493044E0,9.534116983E-1,-1.597896591E-2
2.683981810E-1,-2.000566721E0,9.811085463E-1,-1.491370238E-2
2.704123410E-1,-1.940379262E0,1.001348615E0,-1.970739290E-2
2.724265020E-1,-1.880724430E0,1.015729666E0,-3.036003746E-2
2.743796270E-1,-1.819471717E0,1.026914954E0,-4.101268202E-2
2.763937870E-1,-1.751827359E0,1.034904361E0,-5.326322466E-2
2.784079470E-1,-1.679922104E0,1.032773852E0,-6.178534031E-2
2.803915890E-1,-1.597364068E0,1.024251819E0,-6.072007492E-2
2.823752320E-1,-1.513208151E0,1.016262293E0,-5.805691332E-2
2.844199100E-1,-1.427454352E0,1.024784446E0,-4.101268202E-2
2.864035520E-1,-1.344896317E0,1.049285531E0,-2.130528912E-2
2.883871950E-1,-1.259675264E0,1.069525480E0,1.065264456E-2
2.903708370E-1,-1.170725584E0,1.068992853E0,4.101268202E-2
2.923544800E-1,-1.081243396E0,1.070058107E0,6.924218684E-2
2.943381230E-1,-9.944243431E-1,1.058340192E0,9.693906456E-2
2.963522830E-1,-9.065400362E-1,1.042361259E0,1.246359423E-1
2.983664430E-1,-8.218515515E-1,1.029045463E0,1.475391239E-1
3.003195680E-1,-7.403587699E-1,1.018392801E0,1.725728363E-1
3.023032110E-1,-6.625944972E-1,1.006142259E0,1.960086524E-1
3.043478880E-1,-5.864281058E-1,1.001881242E0,2.167813182E-1
3.063010130E-1,-5.161206126E-1,9.976201653E-1,2.375539690E-1
3.082846560E-1,-4.820321798E-1,9.976201653E-1,2.466087192E-1
3.102988160E-1,-4.122573435E-1,9.848369956E-1,2.647182047E-1
3.123129760E-1,-3.467435837E-1,9.784454107E-1,2.870887816E-1
3.142966190E-1,-2.833603323E-1,9.704559445E-1,3.036003709E-1
3.162802610E-1,-2.167813182E-1,9.544769526E-1,3.238403797E-1
3.182944210E-1,-1.507349163E-1,9.273127317E-1,3.462109566E-1
3.203085820E-1,-8.202536404E-2,8.948221207E-1,3.691141307E-1
3.222922240E-1,-1.491370238E-2,8.575378656E-1,3.925499618E-1
3.243063840E-1,4.687163606E-2,8.096010089E-1,4.234426320E-1
3.262900270E-1,1.129180342E-1,7.531419992E-1,4.543353021E-1
3.283041870E-1,1.757686287E-1,6.924219131E-1,4.878911078E-1
3.302878300E-1,2.402171344E-1,6.306365728E-1,5.219795704E-1
3.322714720E-1,3.025351167E-1,5.715143681E-1,5.555354357E-1
3.342551150E-1,3.605920076E-1,5.123922229E-1,5.928196907E-1
3.362692750E-1,4.181163013E-1,4.511395097E-1,6.279733777E-1
3.382529180E-1,4.703142643E-1,3.936152160E-1,6.615292430E-1
3.402365600E-1,5.134574771E-1,3.435477912E-1,6.993461251E-1
3.422202030E-1,5.550028086E-1,2.924150825E-1,7.313040495E-1
3.442648800E-1,5.848301649E-1,2.636529505E-1,7.664577961E-1
3.462180050E-1,6.061354876E-1,2.492718846E-1,7.984157205E-1
3.482016480E-1,6.226470470E-1,2.221076339E-1,8.341020942E-1
3.502158080E-1,6.407565475E-1,1.912149638E-1,8.740494847E-1
3.522299680E-1,6.530070901E-1,1.640507281E-1,9.092032313E-1
3.542136110E-1,6.567355394E-1,1.368864775E-1,9.454222322E-1
3.561972540E-1,6.641923785E-1,9.960222989E-2,9.832391143E-1
3.582114140E-1,6.679208279E-1,6.498113275E-2,1.022121191E0
3.602255740E-1,6.737797856E-1,2.609897964E-2,1.057274938E0
3.622092160E-1,6.759102941E-1,-1.917476021E-2,1.090830803E0
3.642233770E-1,6.748450398E-1,-6.977482140E-2,1.117995024E0
3.662070190E-1,6.759102941E-1,-1.267664731E-1,1.140365601E0
3.682211790E-1,6.870955825E-1,-1.784317940E-1,1.160073042E0
3.702048220E-1,7.025418878E-1,-2.210423797E-1,1.175519347E0
3.721884640E-1,7.227819562E-1,-2.583266199E-1,1.189367771E0
3.741721070E-1,7.520766854E-1,-2.929477394E-1,1.192030907E0
3.761862670E-1,7.850999236E-1,-3.371562064E-1,1.191498280E0
3.782004270E-1,8.255799413E-1,-3.834952116E-1,1.186704636E0
3.801840700E-1,8.719189763E-1,-4.346278906E-1,1.176051974E0
3.821677120E-1,9.214537740E-1,-4.953479767E-1,1.158475041E0
3.841818730E-1,9.789780378E-1,-5.661880374E-1,1.142496109E0
3.861655150E-1,1.036502361E0,-6.455502510E-1,1.116929770E0
3.881491580E-1,1.100950837E0,-7.270429730E-1,1.091363430E0
3.901328000E-1,1.168062449E0,-8.234494328E-1,1.060470819E0
3.921164430E-1,1.235706806E0,-9.134642482E-1,1.028512836E0
3.941000860E-1,1.306014180E0,-1.012001276E0,9.933590889E-1
3.960837280E-1,1.377386928E0,-1.108940244E0,9.544769526E-1
3.980673710E-1,1.451955438E0,-1.210140467E0,9.108011127E-1
4.000815310E-1,1.527589202E0,-1.318797350E0,8.649947643E-1
4.020956910E-1,1.603222966E0,-1.425856471E0,8.181231022E-1
4.040793340E-1,1.675660968E0,-1.536111355E0,7.637946010E-1
4.060324590E-1,1.745968461E0,-1.635713577E0,7.084008455E-1
4.080466190E-1,1.813080072E0,-1.734250546E0,6.482134461E-1
4.100302610E-1,1.880191803E0,-1.830657005E0,5.874933600E-1
4.120139040E-1,1.948368669E0,-1.924932837E0,5.246427655E-1
4.139975460E-1,2.013882399E0,-2.006958246E0,4.596616030E-1
4.159811890E-1,2.076733112E0,-2.083124638E0,3.978762627E-1
4.179648320E-1,2.128398418E0,-2.157693148E0,3.334277868E-1
4.199484740E-1,2.166747808E0,-2.247708082E0,2.679139972E-1
4.219626340E-1,2.191781521E0,-2.336657524E0,1.970739216E-1
4.239767950E-1,2.201369047E0,-2.440520763E0,1.246359423E-1
4.259299200E-1,2.194444895E0,-2.547580004E0,4.420847446E-2
4.279440800E-1,2.175270081E0,-2.664758921E0,-3.675162420E-2
4.299582400E-1,2.136920452E0,-2.779274940E0,-1.241033077E-1
4.319724000E-1,2.083657265E0,-2.885268688E0,-2.194444835E-1
4.339255250E-1,2.009088755E0,-2.982740402E0,-3.201119602E-1
4.359396850E-1,1.919073939E0,-3.071690083E0,-4.197141826E-1
4.379538450E-1,1.821602225E0,-3.144128084E0,-5.230448246E-1
4.399680050E-1,1.706553698E0,-3.212305069E0,-6.295713186E-1
4.419211300E-1,1.647431493E0,-3.241067171E0,-6.860303283E-1
4.439352910E-1,1.527056575E0,-3.284742832E0,-7.888283134E-1
4.459189330E-1,1.403485894E0,-3.323092461E0,-8.937568665E-1
4.479025760E-1,1.282045722E0,-3.343865156E0,-9.933590889E-1
4.498862180E-1,1.164866686E0,-3.359844208E0,-1.094026566E0
4.519003790E-1,1.056209683E0,-3.361442089E0,-1.189367771E0
4.538840210E-1,9.523464441E-1,-3.356648207E0,-1.281513095E0
4.558981810E-1,8.442220688E-1,-3.333745003E0,-1.361940622E0
4.578513060E-1,7.238472104E-1,-3.177151203E0,-1.431715488E0
4.598349490E-1,5.534048676E-1,-2.764894009E0,-1.468999743E0
4.618491090E-1,3.472762108E-1,-2.321211338E0,-1.488707066E0
4.638937870E-1,1.432780623E-1,-2.170476437E0,-1.514806032E0
4.658469120E-1,-5.219795927E-2,-2.102299452E0,-1.535578728E0
4.678305540E-1,-2.524676621E-1,-2.000034094E0,-1.532382965E0
4.698447140E-1,-4.655205607E-1,-1.888181210E0,-1.508414507E0
4.718588750E-1,-6.807039976E-1,-1.778991699E0,-1.466336489E0
4.738425170E-1,-8.847021461E-1,-1.689509392E0,-1.409877539E0
4.758566770E-1,-1.073253989E0,-1.595766187E0,-1.340102673E0
4.778708370E-1,-1.242630959E0,-1.492968082E0,-1.254348874E0
4.798544800E-1,-1.395496488E0,-1.380582690E0,-1.155279279E0
4.818381230E-1,-1.532915592E0,-1.264468908E0,-1.042893887E0
4.838522830E-1,-1.656486273E0,-1.151018262E0,-9.214537740E-1
4.858359250E-1,-1.767273784E0,-1.046622276E0,-7.962851524E-1
4.878195680E-1,-1.861016989E0,-9.566074610E-1,-6.668555737E-1
4.898032110E-1,-1.944107652E0,-8.873652816E-1,-5.379585624E-1
4.918173710E-1,-2.013882399E0,-8.309062719E-1,-4.101268053E-1
4.938010130E-1,-2.073004723E0,-7.803062201E-1,-2.828277051E-1
4.957846560E-1,-2.120409012E0,-7.382282615E-1,-1.608549356E-1
4.977988160E-1,-2.160888910E0,-7.062703371E-1,-4.261057824E-2
4.998129760E-1,-2.194444895E0,-6.870955825E-1,6.551376730E-2
5.018271360E-1,-2.225870132E0,-6.535397172E-1,1.683117896E-1
5.038107790E-1,-2.254632235E0,-6.386260390E-1,2.625876963E-1
5.057639040E-1,-2.280731201E0,-6.386260390E-1,3.446130455E-1
5.077780640E-1,-2.306297541E0,-6.620618701E-1,4.181163013E-1
5.097922240E-1,-2.330798626E0,-7.052050829E-1,4.830974340E-1
5.117453490E-1,-2.350506067E0,-7.637946010E-1,5.336974859E-1
5.137289920E-1,-2.365952253E0,-8.335694075E-1,5.800365210E-1
5.157431520E-1,-2.380333424E0,-9.150621891E-1,6.189186573E-1
5.177267950E-1,-2.384061813E0,-9.986854196E-1,6.567355394E-1
5.197104370E-1,-2.384061813E0,-1.089765549E0,6.876282096E-1
5.217245970E-1,-2.373941898E0,-1.181378245E0,7.179882526E-1
5.237692750E-1,-2.357430220E0,-1.263936281E0,7.467503548E-1
5.257224000E-1,-2.332396507E0,-1.341700554E0,7.728493810E-1
5.277060430E-1,-2.302036524E0,-1.413073301E0,7.904262543E-1
5.297202030E-1,-2.264219522E0,-1.475391269E0,8.080030680E-1
5.317343630E-1,-2.217347860E0,-1.525458694E0,8.202536106E-1
5.337485230E-1,-2.168345690E0,-1.572862983E0,8.282431364E-1
5.357626830E-1,-2.110288858E0,-1.602690339E0,8.335694075E-1
5.377158080E-1,-2.045840502E0,-1.625593543E0,8.293083906E-1
5.396994510E-1,-1.976598144E0,-1.643170476E0,8.239820600E-1
5.417136110E-1,-1.902562261E0,-1.651692510E0,8.127967715E-1
5.437582890E-1,-1.822134852E0,-1.665008307E0,7.978830934E-1
5.457114140E-1,-1.736913681E0,-1.674595714E0,7.893609405E-1
5.476950560E-1,-1.645300984E0,-1.679389358E0,7.728493810E-1
5.497092160E-1,-1.552090287E0,-1.683117867E0,7.584682703E-1
5.517233770E-1,-1.463673353E0,-1.665008307E0,7.414240837E-1
5.537070190E-1,-1.371528029E0,-1.636246204E0,7.275756001E-1
5.557211790E-1,-1.286306858E0,-1.583515644E0,7.142598033E-1
5.577353390E-1,-1.198955178E0,-1.516403913E0,6.993461251E-1
5.597189820E-1,-1.121723413E0,-1.428519607E0,6.918892860E-1
5.617026250E-1,-1.038632870E0,-1.333178520E0,6.870955825E-1
5.637473020E-1,-9.629990458E-1,-1.232510924E0,6.870955825E-1
5.657309450E-1,-8.884305358E-1,-1.128115058E0,6.865629554E-1
5.676840700E-1,-8.175904751E-1,-1.030110717E0,6.934871674E-1
5.696677120E-1,-7.504788041E-1,-9.406285286E-1,7.004113793E-1
5.716818730E-1,-6.870955825E-1,-8.596684337E-1,7.174556255E-1
5.736655150E-1,-6.231797338E-1,-7.893609405E-1,7.350324988E-1
5.756491580E-1,-5.624596477E-1,-7.275756001E-1,7.542072535E-1
5.776633180E-1,-5.060006380E-1,-6.711165905E-1,7.739146352E-1
5.796774780E-1,-4.500742257E-1,-6.306365728E-1,7.978830934E-1
5.816916380E-1,-3.973436356E-1,-5.970807076E-1,8.229168057E-1
5.836752810E-1,-3.462109566E-1,-5.747101903E-1,8.511462808E-1
5.856284060E-1,-2.982740402E-1,-5.640575290E-1,8.745821118E-1
5.876425660E-1,-2.514024079E-1,-5.677859783E-1,9.044095278E-1
5.896567260E-1,-2.087918371E-1,-5.816344023E-1,9.262474179E-1
5.916098510E-1,-1.880191714E-1,-5.944175720E-1,9.427590370E-1
5.935934940E-1,-1.486043930E-1,-6.274407506E-1,9.635316730E-1
5.956076540E-1,-1.075917110E-1,-6.732471585E-1,9.816411734E-1
5.975912960E-1,-7.510114461E-2,-7.307714224E-1,1.000283360E0
5.995749390E-1,-3.781688958E-2,-8.090683818E-1,1.014664412E0
6.015585820E-1,-1.065264456E-2,-9.001484513E-1,1.022121191E0
6.036032590E-1,1.384843793E-2,-1.005077004E0,1.031175971E0
6.055563840E-1,4.154531285E-2,-1.109472990E0,1.027447581E0
6.075400270E-1,5.858954415E-2,-1.215466738E0,1.024784446E0
6.095847050E-1,7.190535218E-2,-1.331580520E0,1.016794920E0
6.115683470E-1,7.936219871E-2,-1.451955438E0,1.000283360E0
6.135519900E-1,8.255799860E-2,-1.568601966E0,9.805759192E-1
6.155661500E-1,7.669904083E-2,-1.682585239E0,9.523464441E-1
6.175803100E-1,6.657902896E-2,-1.800829530E0,9.219864011E-1
6.195639530E-1,5.219795927E-2,-1.918541312E0,8.852347732E-1
6.215475950E-1,3.036003746E-2,-2.035187721E0,8.404936790E-1
6.235922730E-1,4.261057824E-3,-2.146507978E0,7.930893898E-1
6.255759160E-1,-2.450108156E-2,-2.258893251E0,7.424893379E-1
6.275595580E-1,-5.858954415E-2,-2.368083000E0,6.876282096E-1
6.295432010E-1,-9.640643001E-2,-2.463423967E0,6.290386319E-1
6.315573610E-1,-1.374191195E-1,-2.556634665E0,5.677859783E-1
6.335410040E-1,-1.842907518E-1,-2.635996819E0,5.065332651E-1
6.355246460E-1,-2.290318608E-1,-2.710032701E0,4.431500137E-1
6.375388060E-1,-2.775014043E-1,-2.770752907E0,3.776362538E-1
6.395529660E-1,-3.254382908E-1,-2.829874992E0,3.142530024E-1
6.415671270E-1,-3.733751774E-1,-2.874616146E0,2.492718846E-1
6.435507690E-1,-4.202468395E-1,-2.912965536E0,1.842907518E-1
6.455344120E-1,-4.607268870E-1,-2.942260504E0,1.283643693E-1
6.475485720E-1,-4.953479767E-1,-2.964631081E0,8.042746782E-2
6.495627320E-1,-5.267732739E-1,-2.979544640E0,4.420847446E-2
6.515158570E-1,-5.539374948E-1,-2.985936165E0,5.326322280E-3
6.534995000E-1,-5.768406987E-1,-2.979544640E0,-2.396845073E-2
6.555136600E-1,-5.949501991E-1,-2.962500334E0,-5.432848632E-2
6.575278200E-1,-6.103965044E-1,-2.941727877E0,-8.522115648E-2
6.594809450E-1,-6.221144199E-1,-2.911367655E0,-1.139832959E-1
6.614645870E-1,-6.348975897E-1,-2.870355129E0,-1.390170157E-1
6.635092650E-1,-6.450176239E-1,-2.828809738E0,-1.635181010E-1
6.654623900E-1,-6.503439546E-1,-2.779807568E0,-1.848233789E-1
6.674460330E-1,-6.599313021E-1,-2.729740143E0,-2.061286718E-1
6.694601930E-1,-6.673882008E-1,-2.676476955E0,-2.215750068E-1
6.714743530E-1,-6.748450398E-1,-2.616822243E0,-2.396845073E-1
6.734579960E-1,-6.791061163E-1,-2.548112631E0,-2.524676621E-1
6.754416380E-1,-6.870955825E-1,-2.467152596E0,-2.684466541E-1
6.774557980E-1,-6.908239722E-1,-2.378735542E0,-2.775014043E-1
6.794699590E-1,-6.945524216E-1,-2.286590099E0,-2.876214087E-1
6.814536010E-1,-6.950850487E-1,-2.186987877E0,-2.945456207E-1
6.834677610E-1,-6.961503029E-1,-2.092179298E0,-2.998719513E-1
6.854514040E-1,-6.940197945E-1,-1.996305585E0,-3.089267015E-1
6.874655640E-1,-6.924219131E-1,-1.904160261E0,-3.185140789E-1
6.894492070E-1,-6.886934638E-1,-1.809351683E0,-3.281014562E-1
6.914328490E-1,-6.828345060E-1,-1.724130511E0,-3.376888335E-1
6.934164920E-1,-6.796387434E-1,-1.645833611E0,-3.451456726E-1
6.954306520E-1,-6.684534550E-1,-1.565938711E0,-3.621899188E-1
6.974142950E-1,-6.631271243E-1,-1.492435455E0,-3.755057156E-1
6.993979370E-1,-6.551376581E-1,-1.413605928E0,-3.909520507E-1
7.013815800E-1,-6.450176239E-1,-1.330515265E0,-4.079962969E-1
7.034262570E-1,-6.396912932E-1,-1.244761467E0,-4.207794666E-1
7.053793820E-1,-6.322344542E-1,-1.157409787E0,-4.277036786E-1
7.073630250E-1,-6.285060048E-1,-1.071123362E0,-4.410194755E-1
7.093771850E-1,-6.221144199E-1,-9.917612076E-1,-4.538026452E-1
7.113913450E-1,-6.151902080E-1,-9.092032313E-1,-4.692489803E-1
7.133749880E-1,-6.162554622E-1,-8.266451955E-1,-4.830974340E-1
7.153891480E-1,-6.194512844E-1,-7.510114312E-1,-4.985437691E-1
7.174033080E-1,-6.210491657E-1,-6.759102941E-1,-5.123922229E-1
7.194174680E-1,-6.290386319E-1,-6.157228351E-1,-5.241101384E-1
7.213705930E-1,-6.391586661E-1,-5.555354357E-1,-5.400890708E-1
7.233847540E-1,-6.535397172E-1,-5.054680109E-1,-5.550028086E-1
7.253683960E-1,-6.695187092E-1,-4.639226794E-1,-5.747101903E-1
7.273520390E-1,-6.860303283E-1,-4.293015897E-1,-5.917543769E-1
7.293356810E-1,-7.078682184E-1,-4.042678475E-1,-6.178534031E-1
7.313498410E-1,-7.275756001E-1,-3.861583769E-1,-6.444849968E-1
7.333640020E-1,-7.563377619E-1,-3.733751774E-1,-6.716492176E-1
7.353476440E-1,-7.824367285E-1,-3.728425503E-1,-6.961503029E-1
7.373312870E-1,-8.111988902E-1,-3.813646734E-1,-7.222493291E-1
7.393454470E-1,-8.372978568E-1,-3.978762627E-1,-7.467503548E-1
7.413596070E-1,-8.660600185E-1,-4.250405133E-1,-7.675230503E-1
7.433737670E-1,-8.974853158E-1,-4.527373910E-1,-7.803062201E-1
7.453268920E-1,-9.102684855E-1,-4.655205607E-1,-7.877630591E-1
7.473410520E-1,-9.358348250E-1,-4.985437691E-1,-8.005462289E-1
7.493552120E-1,-9.688580036E-1,-5.305017233E-1,-8.117315173E-1
7.513693730E-1,-9.954896569E-1,-5.629922748E-1,-8.186557293E-1
7.533224980E-1,-1.023719192E0,-5.992112756E-1,-8.271778226E-1
7.553366580E-1,-1.047687650E0,-6.338323355E-1,-8.303736448E-1
7.573508180E-1,-1.075917125E0,-6.625944972E-1,-8.356999755E-1
7.593344610E-1,-1.100418210E0,-6.924219131E-1,-8.378304839E-1
7.613181030E-1,-1.124386668E0,-7.195861340E-1,-8.388957381E-1
7.633627810E-1,-1.147289872E0,-7.440872192E-1,-8.367652297E-1
7.653464230E-1,-1.170725584E0,-7.728493810E-1,-8.330367804E-1
7.673300660E-1,-1.191498280E0,-8.064051867E-1,-8.245146871E-1
7.693137090E-1,-1.206411958E0,-8.282431364E-1,-8.175904751E-1
7.712973510E-1,-1.222923636E0,-8.452873230E-1,-8.000136018E-1
7.732809940E-1,-1.241033077E0,-8.591358066E-1,-7.840346098E-1
7.752951540E-1,-1.250087857E0,-8.687231541E-1,-7.680556774E-1
7.772482790E-1,-1.258610010E0,-8.703210354E-1,-7.590008974E-1
7.792319210E-1,-1.270327806E0,-8.692557812E-1,-7.499461770E-1
7.812460820E-1,-1.279382586E0,-8.602010608E-1,-7.419567108E-1
7.832907590E-1,-1.284176350E0,-8.527442217E-1,-7.313040495E-1
7.852438840E-1,-1.292165756E0,-8.479505181E-1,-7.195861340E-1
7.872275270E-1,-1.297492146E0,-8.388957381E-1,-7.057377100E-1
7.892416870E-1,-1.287904739E0,-8.245146871E-1,-6.823018789E-1
7.912558470E-1,-1.276186824E0,-8.037420511E-1,-6.599313021E-1
7.932394900E-1,-1.260207891E0,-7.760451436E-1,-6.412891746E-1
7.952536500E-1,-1.241565704E0,-7.382282615E-1,-6.231797338E-1
7.972678100E-1,-1.221858382E0,-6.998787522E-1,-6.056028605E-1
7.992819700E-1,-1.204814076E0,-6.578007936E-1,-5.848301649E-1
8.012350950E-1,-1.187769890E0,-6.157228351E-1,-5.651227832E-1
8.032492550E-1,-1.173921466E0,-5.811017752E-1,-5.416869521E-1
8.052328980E-1,-1.158475041E0,-5.534048676E-1,-5.177185535E-1
8.072165410E-1,-1.140898228E0,-5.283711553E-1,-4.958806038E-1
8.092001830E-1,-1.121190786E0,-5.081311464E-1,-4.852279723E-1
8.112143430E-1,-1.104679227E0,-4.873584807E-1,-4.751079381E-1
8.132285040E-1,-1.085504532E0,-4.703142643E-1,-4.655205607E-1
8.152121460E-1,-1.065264463E0,-4.596616030E-1,-4.585963488E-1
8.171957890E-1,-1.047687650E0,-4.490089715E-1,-4.463458061E-1
8.191794310E-1,-1.023186564E0,-4.415521026E-1,-4.383563101E-1
8.211935910E-1,-1.006142259E0,-4.346278906E-1,-4.293015897E-1
8.232077520E-1,-9.811085463E-1,-4.234426320E-1,-4.223773479E-1
8.251608770E-1,-9.598032832E-1,-4.122573435E-1,-4.106594622E-1
8.271750370E-1,-9.374327064E-1,-3.994741738E-1,-4.058657587E-1
8.291891970E-1,-9.134642482E-1,-3.818973005E-1,-4.010720551E-1
8.312033570E-1,-8.916263580E-1,-3.653857112E-1,-3.994741738E-1
8.331564820E-1,-8.665926456E-1,-3.510046303E-1,-3.941478431E-1
8.351706420E-1,-8.388957381E-1,-3.403519988E-1,-3.909520507E-1
8.371848020E-1,-8.096010089E-1,-3.328951299E-1,-3.866910040E-1
8.391989620E-1,-7.803062201E-1,-3.206445873E-1,-3.802994192E-1
8.411520870E-1,-7.515440583E-1,-3.185140789E-1,-3.776362538E-1
8.431662480E-1,-7.163903713E-1,-3.142530024E-1,-3.749730885E-1
8.451498900E-1,-6.849650741E-1,-3.147856593E-1,-3.669835925E-1
8.471640500E-1,-6.498113275E-1,-3.222424984E-1,-3.584614992E-1
8.491171750E-1,-6.146575809E-1,-3.291667104E-1,-3.483414650E-1
8.511008180E-1,-5.805691481E-1,-3.382214606E-1,-3.387540877E-1
8.530844610E-1,-5.459480286E-1,-3.542004228E-1,-3.259709179E-1
8.550986210E-1,-5.134574771E-1,-3.755057156E-1,-3.211772442E-1
8.570822630E-1,-4.788363874E-1,-4.016047120E-1,-3.126551211E-1
8.590659060E-1,-4.484763443E-1,-4.277036786E-1,-3.169161677E-1
8.610495480E-1,-4.207794666E-1,-4.681837261E-1,-3.217098713E-1
8.630942260E-1,-3.936152160E-1,-5.065332651E-1,-3.312972486E-1
8.650473510E-1,-3.669835925E-1,-5.528722405E-1,-3.414172530E-1
8.670309940E-1,-3.446130455E-1,-5.949501991E-1,-3.584614992E-1
8.690451540E-1,-3.201119602E-1,-6.498113275E-1,-3.787015080E-1
8.710593140E-1,-2.972087860E-1,-6.934871674E-1,-3.962783813E-1
8.730429570E-1,-2.785666585E-1,-7.291735411E-1,-4.165183902E-1
8.750265990E-1,-2.604571581E-1,-7.590008974E-1,-4.367584288E-1
8.770407590E-1,-2.391518652E-1,-7.835019827E-1,-4.623247683E-1
8.790549200E-1,-2.221076339E-1,-8.026767969E-1,-4.825648069E-1
8.810080450E-1,-2.077265680E-1,-8.127967715E-1,-5.033374429E-1
8.830222050E-1,-1.912149638E-1,-8.202536106E-1,-5.187838078E-1
8.850058470E-1,-1.826928556E-1,-8.197209835E-1,-5.241101384E-1
8.869894900E-1,-1.661812514E-1,-8.239820600E-1,-5.320996046E-1
8.889731320E-1,-1.533980817E-1,-8.223841786E-1,-5.363606811E-1
8.909567750E-1,-1.422128081E-1,-8.239820600E-1,-5.342301130E-1
8.929709350E-1,-1.331580579E-1,-8.245146871E-1,-5.294364095E-1
8.949545780E-1,-1.241033077E-1,-8.202536106E-1,-5.182511806E-1
8.969382200E-1,-1.139832959E-1,-8.181231022E-1,-5.022721887E-1
8.989523800E-1,-1.145159304E-1,-8.154599667E-1,-4.809668958E-1
9.009665410E-1,-1.145159304E-1,-8.122641444E-1,-4.575310946E-1
9.030112180E-1,-1.187769845E-1,-8.181231022E-1,-4.293015897E-1
9.049643430E-1,-1.262338310E-1,-8.117315173E-1,-4.000068009E-1
9.069479860E-1,-1.374191195E-1,-8.117315173E-1,-3.691141307E-1
9.089621460E-1,-1.502022892E-1,-8.138620257E-1,-3.366235793E-1
9.109763060E-1,-1.661812514E-1,-8.127967715E-1,-3.030677438E-1
9.129294310E-1,-1.853560209E-1,-8.101336360E-1,-2.663161159E-1
9.149435910E-1,-2.045307755E-1,-8.069378138E-1,-2.327602804E-1
9.169577520E-1,-2.295644879E-1,-7.771103978E-1,-2.034655064E-1
9.189413940E-1,-2.577939928E-1,-7.403587699E-1,-1.800296903E-1
9.209250370E-1,-2.849582434E-1,-7.115966678E-1,-1.539307088E-1
9.229391970E-1,-3.126551211E-1,-6.812366247E-1,-1.246359423E-1
9.249228390E-1,-3.371562064E-1,-6.588660479E-1,-9.906959534E-2
9.269064820E-1,-3.627225459E-1,-6.380934119E-1,-7.297061384E-2
9.288901250E-1,-3.909520507E-1,-6.167881489E-1,-4.580637068E-2
9.309042850E-1,-4.143878818E-1,-5.954828262E-1,-1.704423130E-2
9.329184450E-1,-4.362258017E-1,-5.677859783E-1,1.012001187E-2
9.349326050E-1,-4.554005563E-1,-5.443501472E-1,3.408846259E-2
9.368857300E-1,-4.788363874E-1,-5.118595958E-1,5.858954415E-2
9.388693730E-1,-4.974785149E-1,-4.756405652E-1,7.936219871E-2
9.408835330E-1,-5.155879855E-1,-4.415521026E-1,9.693906456E-2
9.429282110E-1,-5.358279943E-1,-4.170510471E-1,1.113201380E-1
9.448813360E-1,-5.560680628E-1,-3.893541694E-1,1.145159304E-1
9.468649780E-1,-5.752428174E-1,-3.600593805E-1,1.139832959E-1
9.488791380E-1,-5.970807076E-1,-3.328951299E-1,1.012001261E-1
9.508932980E-1,-6.194512844E-1,-3.169161677E-1,8.468852192E-2
9.528769410E-1,-6.450176239E-1,-2.924150825E-1,6.018744037E-2
9.548911010E-1,-6.673882008E-1,-2.705771625E-1,2.769687586E-2
9.569052610E-1,-6.908239722E-1,-2.503371537E-1,-7.456851192E-3
9.588889040E-1,-7.137271762E-1,-2.311623842E-1,-5.006742850E-2
9.608725460E-1,-7.392935157E-1,-2.157160491E-1,-9.640643001E-2
9.629172240E-1,-7.616640925E-1,-2.045307755E-1,-1.464738697E-1
9.649008670E-1,-7.803062201E-1,-1.997370869E-1,-1.885518134E-1
9.668539920E-1,-7.994809747E-1,-2.013349831E-1,-2.306297570E-1
9.688376340E-1,-8.154599667E-1,-2.039981484E-1,-2.689792812E-1
9.708517950E-1,-8.287757635E-1,-2.125202566E-1,-3.025351167E-1
9.728354370E-1,-8.415589333E-1,-2.189118415E-1,-3.323625028E-1
9.748190800E-1,-8.495483994E-1,-2.284992188E-1,-3.621899188E-1
9.768027220E-1,-8.527442217E-1,-2.364887148E-1,-3.920173049E-1
9.788168820E-1,-8.532768488E-1,-2.444781959E-1,-4.117247164E-1
9.808310430E-1,-8.490157723E-1,-2.460760921E-1,-4.394215941E-1
9.828146850E-1,-8.447546959E-1,-2.492718846E-1,-4.623247683E-1
9.847678100E-1,-8.383631110E-1,-2.487392575E-1,-4.814995229E-1
9.867819700E-1,-8.287757635E-1,-2.444781959E-1,-4.996090233E-1
9.887656130E-1,-8.170578480E-1,-2.407497615E-1,-5.155879855E-1
9.907492550E-1,-8.000136018E-1,-2.391518652E-1,-5.299690962E-1
9.927328980E-1,-7.872304320E-1,-2.391518652E-1,-5.400890708E-1
9.947165410E-1,-7.733820081E-1,-2.327602804E-1,-5.491438508E-1
9.967001830E-1,-7.563377619E-1,-2.253034264E-1,-5.534048676E-1
9.986838260E-1,-7.414240837E-1,-2.183792144E-1,-5.613943934E-1
1.000697986E0,-7.254450917E-1,-2.141181529E-1,-5.619270205E-1
1.002712146E0,-7.084008455E-1,-2.125202566E-1,-5.651227832E-1
1.004665271E0,-6.918892860E-1,-2.098570913E-1,-5.619270205E-1
1.006679431E0,-6.759102941E-1,-2.087918371E-1,-5.603290796E-1
1.008724109E0,-6.567355394E-1,-2.237055302E-1,-5.592638254E-1
1.010707752E0,-6.412891746E-1,-2.370213419E-1,-5.581985712E-1
1.012721912E0,-6.285060048E-1,-2.375539690E-1,-5.566006899E-1
1.014675037E0,-6.125270724E-1,-2.284992188E-1,-5.528722405E-1
1.016658679E0,-5.981460214E-1,-2.178465873E-1,-5.512743592E-1
1.018672839E0,-5.832322836E-1,-2.061286718E-1,-5.411543250E-1
1.020687000E0,-5.699164867E-1,-1.992044598E-1,-5.363606811E-1
1.022701160E0,-5.560680628E-1,-1.885518134E-1,-5.230448246E-1
1.024654285E0,-5.486112237E-1,-1.800296903E-1,-5.171858668E-1
1.026668445E0,-5.331648588E-1,-1.619201899E-1,-5.091964006E-1
1.028682605E0,-5.209143162E-1,-1.427454352E-1,-4.958806038E-1
1.030635730E0,-5.065332651E-1,-1.182443574E-1,-4.820321798E-1
1.032619373E0,-4.932174385E-1,-9.747169912E-2,-4.644553065E-1
1.034603015E0,-4.767058492E-1,-7.456851006E-2,-4.495415986E-1
1.036586658E0,-4.655205607E-1,-5.273059011E-2,-4.340952635E-1
1.038570300E0,-4.522047639E-1,-3.195793182E-2,-4.191815555E-1
1.040584461E0,-4.372910559E-1,-1.065264456E-2,-4.016047120E-1
1.042598621E0,-4.239752591E-1,1.012001187E-2,-3.850930929E-1
1.044551746E0,-4.133225977E-1,3.142530099E-2,-3.707120419E-1
1.046565906E0,-4.016047120E-1,5.060006306E-2,-3.568635881E-1
1.048580066E0,-3.920173049E-1,6.338323653E-2,-3.392867148E-1
1.050594226E0,-3.845604658E-1,7.669904083E-2,-3.222424984E-1
1.052547351E0,-3.781688809E-1,8.096009493E-2,-3.046656251E-1
1.054530994E0,-3.733751774E-1,9.267801046E-2,-2.876214087E-1
1.056545154E0,-3.680488765E-1,9.427590668E-2,-2.695119083E-1
1.058559314E0,-3.637878001E-1,9.587380290E-2,-2.487392575E-1
1.060512439E0,-3.621899188E-1,9.161274135E-2,-2.311623842E-1
1.062526599E0,-3.637878001E-1,8.415589482E-2,-2.135855258E-1
1.064510242E0,-3.637878001E-1,7.403588295E-2,-1.912149638E-1
1.066493884E0,-3.675162494E-1,5.858954415E-2,-1.778991669E-1
1.068477527E0,-3.696467578E-1,3.621899337E-2,-1.597896665E-1
1.070491687E0,-3.776362538E-1,9.587380104E-3,-1.400822699E-1
1.072505847E0,-3.877562582E-1,-2.503371425E-2,-1.246359423E-1
1.074458972E0,-3.962783813E-1,-5.539375171E-2,-1.113201380E-1
1.076442615E0,-4.037352204E-1,-9.906959534E-2,-9.480853379E-2
1.078456775E0,-4.138552547E-1,-1.432780623E-1,-7.936219871E-2
1.080470935E0,-4.250405133E-1,-1.874865443E-1,-6.711166352E-2
1.082485095E0,-4.346278906E-1,-2.327602804E-1,-5.858954415E-2
1.084438220E0,-4.442152679E-1,-2.759034932E-1,-4.740426689E-2
1.086452380E0,-4.527373910E-1,-3.211772442E-1,-4.261057824E-2
1.088466541E0,-4.623247683E-1,-3.653857112E-1,-3.142530099E-2
1.090419666E0,-4.687163532E-1,-4.058657587E-1,-2.822950855E-2
1.092403308E0,-4.735100567E-1,-4.442152679E-1,-1.864212751E-2
1.094417468E0,-4.788363874E-1,-4.783037305E-1,-1.331580617E-2
1.096431629E0,-4.804342687E-1,-5.107942820E-1,-9.587380104E-3
1.098445789E0,-4.825648069E-1,-5.395564437E-1,-2.130528912E-3
1.100398914E0,-4.799016416E-1,-5.672533512E-1,7.456851192E-3
1.102413074E0,-4.783037305E-1,-5.933523178E-1,1.597896591E-2
1.104396716E0,-4.745753109E-1,-6.178534031E-1,2.290318534E-2
1.106380359E0,-4.724447727E-1,-6.370281577E-1,3.142530099E-2
1.108364002E0,-4.703142643E-1,-6.615292430E-1,4.207794741E-2
1.110347644E0,-4.660531878E-1,-6.812366247E-1,5.113269389E-2
1.112331287E0,-4.612595141E-1,-7.009440064E-1,6.018744037E-2
1.114314929E0,-4.623247683E-1,-7.195861340E-1,6.551376730E-2
1.116329089E0,-4.580637217E-1,-7.414240837E-1,7.084008306E-2
1.118343250E0,-4.554005563E-1,-7.637946010E-1,7.510114461E-2
1.120357410E0,-4.516721368E-1,-7.898935676E-1,7.563377917E-2
1.122341052E0,-4.506068528E-1,-8.175904751E-1,7.403588295E-2
1.124294177E0,-4.447479248E-1,-8.404936790E-1,6.977482140E-2
1.126308337E0,-4.420847595E-1,-8.665926456E-1,6.178534031E-2
1.128291980E0,-4.388889670E-1,-8.980179429E-1,2.290318534E-2
1.130275623E0,-4.410194755E-1,-9.241169095E-1,-3.621899337E-2
1.132259265E0,-4.399542212E-1,-9.123989940E-1,-1.134506613E-1
1.134273425E0,-4.431500137E-1,-8.809736967E-1,-1.928128600E-1
1.136257068E0,-4.468784332E-1,-8.602010608E-1,-2.711097896E-1
1.138240711E0,-4.516721368E-1,-8.495483994E-1,-3.456783295E-1
1.140254871E0,-4.612595141E-1,-8.554073572E-1,-4.159857631E-1
1.142299548E0,-4.687163532E-1,-8.692557812E-1,-4.767058492E-1
1.144252673E0,-4.799016416E-1,-8.878979087E-1,-5.278385282E-1
1.146236316E0,-4.825648069E-1,-8.980179429E-1,-5.539374948E-1
1.148250476E0,-4.958806038E-1,-9.182579517E-1,-5.965480804E-1
1.150264636E0,-5.065332651E-1,-9.384979606E-1,-6.391586661E-1
1.152248279E0,-5.193164349E-1,-9.427590370E-1,-6.791061163E-1
1.154231921E0,-5.347627401E-1,-9.262474179E-1,-7.094660997E-1
1.156246082E0,-5.470132828E-1,-8.953547478E-1,-7.307714224E-1
1.158260242E0,-5.597964525E-1,-8.681905270E-1,-7.488809228E-1
1.160243884E0,-5.773733258E-1,-8.420915604E-1,-7.616640925E-1
1.162258045E0,-5.986786485E-1,-8.309062719E-1,-7.765777707E-1
1.164241687E0,-6.205165386E-1,-8.197209835E-1,-7.850999236E-1
1.166225330E0,-6.407565475E-1,-7.978830934E-1,-7.978830934E-1
1.168208972E0,-6.631271243E-1,-7.675230503E-1,-7.984157205E-1
1.170192615E0,-6.838997602E-1,-7.323693037E-1,-7.957525253E-1
1.172176257E0,-7.052050829E-1,-6.865629554E-1,-7.973504663E-1
1.174190418E0,-7.243798375E-1,-6.322344542E-1,-7.957525253E-1
1.176174060E0,-7.419567108E-1,-5.752428174E-1,-7.946872711E-1
1.178157703E0,-7.632619739E-1,-5.139901042E-1,-7.877630591E-1
1.180171863E0,-7.781757116E-1,-4.452805519E-1,-7.850999236E-1
1.182216541E0,-7.920241356E-1,-3.808320463E-1,-7.850999236E-1
1.184169666E0,-7.978830934E-1,-3.312972486E-1,-7.824367285E-1
1.186153308E0,-8.048073053E-1,-2.924150825E-1,-7.787083387E-1
1.188167468E0,-8.064051867E-1,-2.711097896E-1,-7.712514400E-1
1.190181629E0,-8.010788560E-1,-2.604571581E-1,-7.627293468E-1
1.192165271E0,-7.957525253E-1,-2.625876963E-1,-7.462177277E-1
1.194148914E0,-7.909588814E-1,-2.700445354E-1,-7.259777188E-1
1.196163074E0,-7.808388472E-1,-2.775014043E-1,-7.009440064E-1
1.198177234E0,-7.680556774E-1,-2.790992856E-1,-6.705839634E-1
1.200130359E0,-7.568703890E-1,-2.759034932E-1,-6.391586661E-1
1.202144519E0,-7.435545921E-1,-2.673813701E-1,-6.008091569E-1
1.204128162E0,-7.286409140E-1,-2.519350350E-1,-5.603290796E-1
1.206111804E0,-7.131945491E-1,-2.428802997E-1,-5.107942820E-1
1.208095447E0,-6.993461251E-1,-2.423476577E-1,-4.601942301E-1
1.210109607E0,-6.780408025E-1,-2.460760921E-1,-4.085289240E-1
1.212123767E0,-6.562029123E-1,-2.514024079E-1,-3.526025414E-1
1.214107410E0,-6.327670813E-1,-2.620550692E-1,-2.982740402E-1
1.216091052E0,-6.077333689E-1,-2.663161159E-1,-2.370213419E-1
1.218105212E0,-5.842975378E-1,-2.732403278E-1,-1.800296903E-1
1.220119373E0,-5.629922748E-1,-2.844256163E-1,-1.203748807E-1
1.222164050E0,-5.379585624E-1,-2.998719513E-1,-6.178534031E-2
1.224086658E0,-5.150553584E-1,-3.206445873E-1,-6.391586736E-3
1.226100818E0,-4.958806038E-1,-3.515372574E-1,5.273059011E-2
1.228114978E0,-4.745753109E-1,-3.829625845E-1,1.049285457E-1
1.230129138E0,-4.543353021E-1,-4.293015897E-1,1.560612470E-1
1.232082263E0,-4.388889670E-1,-4.751079381E-1,2.029328793E-1
1.234096423E0,-4.250405133E-1,-5.283711553E-1,2.423476577E-1
1.236110584E0,-4.058657587E-1,-5.832322836E-1,2.833603323E-1
1.238124744E0,-3.920173049E-1,-6.498113275E-1,3.137203753E-1
1.240077869E0,-3.813646734E-1,-7.233145833E-1,3.462109566E-1
1.242092029E0,-3.728425503E-1,-8.010788560E-1,3.723099232E-1
1.244075671E0,-3.632551730E-1,-8.857674003E-1,3.952131271E-1
1.246059314E0,-3.573962152E-1,-9.779127836E-1,4.149205089E-1
1.248042957E0,-3.520699143E-1,-1.078580260E0,4.314320982E-1
1.250026599E0,-3.478088379E-1,-1.188835144E0,4.468784332E-1
1.252040759E0,-3.467435837E-1,-1.308144808E0,4.591289759E-1
1.254054920E0,-3.440804183E-1,-1.438107014E0,4.692489803E-1
1.256008045E0,-3.424825370E-1,-1.569667220E0,4.751079381E-1
1.257991687E0,-3.424825370E-1,-1.711347342E0,4.830974340E-1
1.260005847E0,-3.408846259E-1,-1.855690718E0,4.873584807E-1
1.262050525E0,-3.376888335E-1,-2.008556128E0,4.948153496E-1
1.264003650E0,-3.328951299E-1,-2.160888910E0,5.054680109E-1
1.265987293E0,-3.270362020E-1,-2.312689066E0,5.171858668E-1
1.268001453E0,-3.142530024E-1,-2.462358713E0,5.299690962E-1
1.270015613E0,-3.020024598E-1,-2.611495733E0,5.496764779E-1
1.271999255E0,-2.865561247E-1,-2.754241228E0,5.725796223E-1
1.274013416E0,-2.636529505E-1,-2.890595198E0,6.040049195E-1
1.276027576E0,-2.396845073E-1,-3.013633251E0,6.418218613E-1
1.278011218E0,-2.130528986E-1,-3.125485897E0,6.854977012E-1
1.279994861E0,-1.837581247E-1,-3.229349136E0,7.339671850E-1
1.282009021E0,-1.502022892E-1,-3.326288223E0,7.898935676E-1
1.283992664E0,-1.139832959E-1,-3.422694683E0,8.532768488E-1
1.285945789E0,-7.350324839E-2,-3.496730566E0,9.241169095E-1
1.287929431E0,-3.675162420E-2,-3.554787397E0,1.000815988E0
1.289943591E0,4.261057824E-3,-3.588876009E0,1.080178142E0
1.291957752E0,4.633900523E-2,-3.607518196E0,1.165931940E0
1.293910877E0,6.711166352E-2,-3.614974976E0,1.211738348E0
1.295894519E0,1.113201380E-1,-3.625094891E0,1.301220536E0
1.297908679E0,1.486043930E-1,-3.620833874E0,1.393898487E0
1.299922839E0,1.848233789E-1,-3.618170738E0,1.480717540E0
1.301937000E0,2.231729031E-1,-3.615507603E0,1.568069220E0
1.303890125E0,2.551308274E-1,-3.610181332E0,1.649562001E0
1.305904285E0,2.828277051E-1,-3.589408636E0,1.714010477E0
1.307918445E0,3.105245829E-1,-3.559581280E0,1.771534801E0
1.309902087E0,3.382214606E-1,-3.521231651E0,1.821602225E0
1.311885730E0,3.637878001E-1,-3.476490498E0,1.857288599E0
1.313899890E0,3.888215125E-1,-3.426955700E0,1.888713837E0
1.315914050E0,4.117247164E-1,-3.375823021E0,1.910019159E0
1.317928211E0,4.367584288E-1,-3.318831444E0,1.930259228E0
1.319881336E0,4.575310946E-1,-3.266100883E0,1.946770787E0
1.321895496E0,4.809668958E-1,-3.209109068E0,1.958488703E0
1.323879138E0,5.033374429E-1,-3.161705017E0,1.970739245E0
1.325862781E0,5.251753926E-1,-3.116963863E0,1.982457161E0
1.327846423E0,5.475459099E-1,-3.078081608E0,1.989381313E0
1.329830066E0,5.688512325E-1,-3.045058489E0,1.998436093E0
1.331813709E0,5.869607329E-1,-3.016829014E0,2.004295111E0
1.333827869E0,6.072007418E-1,-2.994458437E0,2.009621382E0
1.335811511E0,6.285060048E-1,-2.969424725E0,2.012284517E0
1.337795154E0,6.476807594E-1,-2.940662622E0,2.013349771E0
1.339809314E0,6.716492176E-1,-2.909237146E0,2.008023500E0
1.341853992E0,6.913566589E-1,-2.874616146E0,2.005360365E0
1.343807117E0,7.137271762E-1,-2.829874992E0,1.995772958E0
1.345790759E0,7.318366766E-1,-2.779807568E0,1.991511941E0
1.347804920E0,7.526093125E-1,-2.718022346E0,1.986185551E0
1.349819080E0,7.691209316E-1,-2.649845362E0,1.982989788E0
1.351802722E0,7.829693556E-1,-2.568885326E0,1.978196144E0
1.353816882E0,7.936220169E-1,-2.483131409E0,1.976598144E0
1.355831043E0,8.021441102E-1,-2.385127068E0,1.973402381E0
1.357845203E0,8.000136018E-1,-2.281796455E0,1.970206618E0
1.359828845E0,7.994809747E-1,-2.181661606E0,1.973402381E0
1.361843005E0,7.904262543E-1,-2.066612959E0,1.969673991E0
1.363826648E0,7.755125165E-1,-1.959021330E0,1.964347601E0
1.365840808E0,7.558051348E-1,-1.846635938E0,1.962217093E0
1.367793933E0,7.297061682E-1,-1.733717918E0,1.952629805E0
1.369777576E0,6.966829300E-1,-1.621865153E0,1.946238160E0
1.371791736E0,6.593986750E-1,-1.509479761E0,1.935052872E0
1.373805896E0,6.109291911E-1,-1.400822759E0,1.918541312E0
1.375759021E0,5.624596477E-1,-1.294828892E0,1.904160261E0
1.377742664E0,5.097290277E-1,-1.184041500E0,1.884452820E0
1.379756824E0,4.484763443E-1,-1.081243396E0,1.865810752E0
1.381801502E0,3.856257200E-1,-9.784454107E-1,1.835983276E0
1.383754627E0,3.142530024E-1,-8.894958496E-1,1.806155920E0
1.385738269E0,2.407497615E-1,-7.984157205E-1,1.771534801E0
1.387752429E0,1.592570394E-1,-7.185208797E-1,1.734783173E0
1.389766589E0,8.042746782E-2,-6.407565475E-1,1.694835782E0
1.391750232E0,-5.858954508E-3,-5.656554103E-1,1.650627255E0
1.393733875E0,-9.161274135E-2,-4.964132309E-1,1.610147238E0
1.395748035E0,-1.805623323E-1,-4.287689328E-1,1.563275576E0
1.397762195E0,-2.700445354E-1,-3.701793849E-1,1.519599795E0
1.399715320E0,-3.573962152E-1,-3.174487948E-1,1.478054404E0
1.401729480E0,-4.447479248E-1,-2.679139972E-1,1.433313370E0
1.403713123E0,-5.310343504E-1,-2.194444835E-1,1.385909081E0
1.405696765E0,-6.162554622E-1,-1.656486243E-1,1.349157453E0
1.407710925E0,-6.977482438E-1,-1.145159304E-1,1.306546807E0
1.409664050E0,-7.755125165E-1,-6.444849819E-2,1.268197298E0
1.411678211E0,-8.447546959E-1,-1.917476021E-2,1.230380416E0
1.413661853E0,-9.113337398E-1,2.503371425E-2,1.198422551E0
1.415645496E0,-9.704559445E-1,6.711166352E-2,1.175519347E0
1.417659656E0,-1.024784446E0,1.043959185E-1,1.154746652E0
1.419673816E0,-1.073786616E0,1.331580579E-1,1.137702465E0
1.421687976E0,-1.115331888E0,1.549959779E-1,1.117462397E0
1.423641101E0,-1.153681397E0,1.858886480E-1,1.094026566E0
1.425655261E0,-1.186172009E0,2.114549875E-1,1.080178142E0
1.427669421E0,-1.213868856E0,2.269013226E-1,1.071655989E0
1.429683582E0,-1.235174179E0,2.354234457E-1,1.062601328E0
1.431667224E0,-1.249022603E0,2.412824035E-1,1.064731836E0
1.433681384E0,-1.254881501E0,2.466087192E-1,1.070058107E0
1.435695545E0,-1.252750993E0,2.514024079E-1,1.074319243E0
1.437679187E0,-1.251685739E0,2.535329461E-1,1.082841277E0
1.439662830E0,-1.243696213E0,2.530003190E-1,1.093493938E0
1.441676990E0,-1.234108925E0,2.540655732E-1,1.106277108E0
1.443660632E0,-1.215466738E0,2.524676621E-1,1.108940244E0
1.445644275E0,-1.196824670E0,2.471413612E-1,1.114799261E0
1.447627918E0,-1.184041500E0,2.466087192E-1,1.119060278E0
1.449611560E0,-1.157409787E0,2.482066154E-1,1.115864515E0
1.451595203E0,-1.129180312E0,2.492718846E-1,1.101483464E0
1.453578845E0,-1.095624447E0,2.593919039E-1,1.082308650E0
1.455562488E0,-1.062068701E0,2.663161159E-1,1.055677056E0
1.457576648E0,-1.025849700E0,2.860234976E-1,1.020523310E0
1.459590808E0,-9.885654449E-1,3.126551211E-1,9.853696227E-1
1.461604968E0,-9.459548593E-1,3.360909224E-1,9.459548593E-1
1.463558093E0,-8.990831971E-1,3.595267534E-1,8.974853158E-1
1.465572254E0,-8.511462808E-1,3.808320463E-1,8.506136537E-1
1.467586414E0,-8.010788560E-1,4.090615511E-1,7.989483476E-1
1.469570056E0,-7.504788041E-1,4.394215941E-1,7.462177277E-1
1.471553699E0,-6.988134980E-1,4.692489803E-1,6.918892860E-1
1.473567859E0,-6.498113275E-1,5.075985193E-1,6.354302764E-1
1.475582019E0,-6.018744111E-1,5.475459099E-1,5.842975378E-1
1.477565662E0,-5.528722405E-1,5.805691481E-1,5.336974859E-1
1.479549304E0,-5.044026971E-1,6.029396653E-1,4.852279723E-1
1.481593982E0,-4.559331834E-1,6.274407506E-1,4.436826408E-1
1.483577625E0,-4.117247164E-1,6.492787004E-1,3.984089196E-1
1.485530750E0,-3.685815036E-1,6.625944972E-1,3.600593805E-1
1.487514392E0,-3.291667104E-1,6.721818447E-1,3.275688291E-1
1.489528552E0,-2.945456207E-1,6.833671331E-1,2.988066673E-1
1.491542712E0,-2.577939928E-1,6.881608367E-1,2.769687474E-1
1.493556873E0,-2.316950262E-1,6.897587180E-1,2.577939928E-1
1.495509998E0,-2.066612989E-1,6.865629554E-1,2.237055302E-1
1.497493640E0,-1.896170676E-1,6.993461251E-1,1.949433982E-1
1.499507800E0,-1.704423130E-1,7.057377100E-1,1.763012707E-1
1.501552478E0,-1.608549356E-1,6.945524216E-1,1.629854590E-1
1.503505603E0,-1.480717659E-1,6.807039976E-1,1.528654546E-1
1.505489246E0,-1.331580579E-1,6.759102941E-1,1.470064968E-1
1.507503406E0,-1.251685768E-1,6.599313021E-1,1.507349163E-1
1.509517566E0,-1.198422536E-1,6.370281577E-1,1.576591432E-1
1.511501209E0,-1.166464612E-1,6.178534031E-1,1.672465205E-1
1.513515369E0,-1.129180342E-1,5.853627920E-1,1.800296903E-1
1.515529529E0,-1.118527651E-1,5.603290796E-1,1.938781291E-1
1.517543689E0,-1.086569726E-1,5.395564437E-1,2.029328793E-1
1.519496814E0,-1.049285457E-1,5.182511806E-1,2.119876295E-1
1.521510974E0,-9.960222989E-2,4.969458580E-1,2.269013226E-1
1.523494617E0,-9.800432622E-2,4.772384763E-1,2.343581766E-1
1.525478259E0,-9.374327213E-2,4.538026452E-1,2.455434501E-1
1.527461902E0,-8.735168725E-2,4.293015897E-1,2.519350350E-1
1.529445545E0,-7.723167539E-2,4.021373391E-1,2.572613657E-1
1.531429187E0,-6.977482140E-2,3.691141307E-1,2.588592768E-1
1.533412830E0,-5.699164793E-2,3.344930410E-1,2.572613657E-1
1.535396472E0,-4.101268202E-2,2.993393242E-1,2.514024079E-1
1.537410632E0,-2.822950855E-2,2.631203234E-1,2.391518652E-1
1.539424793E0,-3.408846259E-2,2.013349831E-1,2.167813182E-1
1.541438953E0,-6.498113275E-2,1.118527651E-1,1.901497096E-1
1.543392078E0,-1.145159304E-1,2.929477207E-2,1.571265012E-1
1.545406238E0,-1.502022892E-1,-8.522115648E-3,1.299622655E-1
1.547420398E0,-1.800296903E-1,-4.314320907E-2,1.027980223E-1
1.549434558E0,-2.284992188E-1,-1.017327532E-1,7.297061384E-2
1.551387683E0,-2.764361203E-1,-1.475391239E-1,4.314320907E-2
1.553401843E0,-3.051982522E-1,-1.672465205E-1,1.012001187E-2
1.555416004E0,-3.392867148E-1,-1.890844405E-1,-2.450108156E-2
1.557399646E0,-3.941478431E-1,-1.922802329E-1,-5.858954415E-2
1.559383289E0,-4.458131790E-1,-1.853560209E-1,-8.415589482E-2
1.561397449E0,-4.756405652E-1,-1.581917703E-1,-1.033306494E-1
1.563381091E0,-4.910869002E-1,-1.315601617E-1,-1.182443574E-1
1.565364734E0,-5.033374429E-1,-1.081243455E-1,-1.390170157E-1
1.567348377E0,-5.198490620E-1,-6.178534031E-2,-1.651159972E-1
1.569362537E0,-5.395564437E-1,-1.278317347E-2,-1.773665249E-1
1.571346179E0,-5.571333170E-1,2.450108156E-2,-1.890844405E-1
1.573360339E0,-5.693838596E-1,6.498113275E-2,-1.928128600E-1
1.575313464E0,-5.954828262E-1,1.022653878E-1,-1.933455020E-1
1.577297107E0,-6.221144199E-1,1.347559541E-1,-1.912149638E-1
1.579311267E0,-6.556702852E-1,1.528654546E-1,-1.810949594E-1
1.581355945E0,-6.961503029E-1,1.725728363E-1,-1.651159972E-1
1.583309070E0,-7.360977530E-1,1.997370869E-1,-1.565938741E-1
1.585292712E0,-7.579356432E-1,2.045307755E-1,-1.491370201E-1
1.587306873E0,-8.080030680E-1,2.215750068E-1,-1.406149119E-1
1.589321033E0,-8.649947643E-1,2.380866110E-1,-1.368864775E-1
1.591304675E0,-9.305084944E-1,2.721750736E-1,-1.310275346E-1
1.593318836E0,-9.821738005E-1,3.286340833E-1,-1.251685768E-1
1.595332996E0,-1.018392801E0,3.632551730E-1,-1.043959185E-1
1.597316638E0,-1.043959141E0,4.032025933E-1,-8.948221803E-2
1.599300281E0,-1.055144429E0,4.495415986E-1,-7.776430249E-2
1.601344959E0,-1.049285531E0,5.070658922E-1,-6.444849819E-2
1.603328601E0,-1.057807565E0,5.635249019E-1,-5.645901710E-2
1.605312244E0,-1.055144429E0,6.226470470E-1,-4.953479767E-2
1.607295886E0,-1.017860174E0,6.817692518E-1,-6.498113275E-2
1.609310046E0,-9.645969868E-1,7.510114312E-1,-7.030745596E-2
1.611324207E0,-9.166600704E-1,8.175904751E-1,-8.468852192E-2
1.613307849E0,-8.602010608E-1,8.655273914E-1,-9.054747969E-2
1.615291492E0,-8.000136018E-1,8.969526887E-1,-9.693906456E-2
1.617275134E0,-7.419567108E-1,9.123989940E-1,-1.043959185E-1
1.619289295E0,-6.854977012E-1,9.203884602E-1,-1.166464612E-1
1.621333972E0,-6.317018270E-1,9.139968753E-1,-1.251685768E-1
1.623256580E0,-5.848301649E-1,9.033442736E-1,-1.363538504E-1
1.625270740E0,-5.390238166E-1,8.783105612E-1,-1.432780623E-1
1.627284900E0,-5.049353242E-1,8.293083906E-1,-1.518001854E-1
1.629299060E0,-4.783037305E-1,7.856325507E-1,-1.635181010E-1
1.631252185E0,-4.671184719E-1,7.286409140E-1,-1.736381054E-1
1.633266345E0,-4.793690145E-1,6.402239203E-1,-1.928128600E-1
1.635280505E0,-4.900216460E-1,5.560680628E-1,-2.093244642E-1
1.637294666E0,-5.049353242E-1,4.889563918E-1,-2.258360684E-1
1.639247791E0,-5.187838078E-1,4.223773479E-1,-2.519350350E-1
1.641261951E0,-5.432848930E-1,3.691141307E-1,-2.876214087E-1
1.643245593E0,-5.656554103E-1,3.435477912E-1,-3.302319944E-1
1.645229236E0,-5.842975378E-1,3.376888335E-1,-3.739078343E-1
1.647212879E0,-5.922870636E-1,3.249056637E-1,-4.117247164E-1
1.649196521E0,-5.949501991E-1,2.860234976E-1,-4.415521026E-1
1.651180164E0,-5.800365210E-1,2.599245310E-1,-4.660531878E-1
1.653194324E0,-5.507417321E-1,2.530003190E-1,-4.937500656E-1
1.655177966E0,-5.091964006E-1,2.386192381E-1,-5.225121975E-1
1.657161609E0,-4.633900523E-1,2.306297570E-1,-5.486112237E-1
1.659175769E0,-4.202468395E-1,2.018676102E-1,-5.656554103E-1
1.661220447E0,-3.739078343E-1,1.581917703E-1,-5.763080716E-1
1.663173572E0,-3.147856593E-1,1.065264493E-1,-5.768406987E-1
1.665157214E0,-2.375539690E-1,5.752427876E-2,-5.752428174E-1
1.667171375E0,-1.613875628E-1,-1.438106969E-2,-5.672533512E-1
1.669185535E0,-7.882957160E-2,-6.764429063E-2,-5.576659441E-1
1.671169177E0,2.024002373E-2,-1.198422536E-1,-5.454154015E-1
1.673152820E0,1.107875034E-1,-1.986718178E-1,-5.363606811E-1
1.675166980E0,1.880191714E-1,-2.764361203E-1,-5.257080197E-1
1.677181140E0,2.625876963E-1,-3.408846259E-1,-5.209143162E-1
1.679134265E0,3.302319944E-1,-3.957457542E-1,-5.123922229E-1
1.681148425E0,3.717772961E-1,-4.665858448E-1,-5.001416802E-1
1.683132068E0,4.069310129E-1,-5.257080197E-1,-4.916195571E-1
1.685115711E0,4.415521026E-1,-5.592638254E-1,-4.777711034E-1
1.687099353E0,4.719121456E-1,-5.970807076E-1,-4.639226794E-1
1.689113513E0,5.155879855E-1,-6.029396653E-1,-4.522047639E-1
1.691127673E0,5.672533512E-1,-6.029396653E-1,-4.383563101E-1
1.693111316E0,6.077333689E-1,-6.221144199E-1,-4.255731404E-1
1.695094959E0,6.407565475E-1,-6.380934119E-1,-4.095941782E-1
1.697109119E0,6.711165905E-1,-6.551376581E-1,-3.930825889E-1
1.699123279E0,6.972155571E-1,-6.753776670E-1,-3.787015080E-1
1.701167957E0,7.227819562E-1,-6.844323874E-1,-3.701793849E-1
1.703090564E0,7.590008974E-1,-6.945524216E-1,-3.573962152E-1
1.705074207E0,7.941546440E-1,-6.993461251E-1,-3.510046303E-1
1.707088367E0,8.277105093E-1,-7.110640407E-1,-3.398193717E-1
1.709102527E0,8.548747301E-1,-7.286409140E-1,-3.323625028E-1
1.711055652E0,8.783105612E-1,-7.451524734E-1,-3.270362020E-1
1.713069812E0,9.028116465E-1,-7.574030161E-1,-3.249056637E-1
1.715083972E0,9.299758673E-1,-7.611314654E-1,-3.217098713E-1
1.717067615E0,9.566074610E-1,-7.616640925E-1,-3.147856593E-1
1.719051257E0,9.752495885E-1,-7.669904232E-1,-3.089267015E-1
1.721095935E0,9.949570298E-1,-7.760451436E-1,-2.988066673E-1
1.723079578E0,1.014664412E0,-8.096010089E-1,-2.908172011E-1
1.725032703E0,1.035969734E0,-8.053399324E-1,-2.817624509E-1
1.727016345E0,1.050883412E0,-7.909588814E-1,-2.700445354E-1
1.729030505E0,1.062068701E0,-7.792409658E-1,-2.572613657E-1
1.731044666E0,1.068460226E0,-7.717841268E-1,-2.455434501E-1
1.733028308E0,1.068992853E0,-7.520766854E-1,-2.306297570E-1
1.735011951E0,1.058872819E0,-7.286409140E-1,-2.215750068E-1
1.736995593E0,1.054079175E0,-7.163903713E-1,-2.205097377E-1
1.739009754E0,1.041828632E0,-6.876282096E-1,-2.130528986E-1
1.741023914E0,1.026382327E0,-6.498113275E-1,-2.114549875E-1
1.742977039E0,1.001348615E0,-6.205165386E-1,-2.087918371E-1
1.744991199E0,9.715211987E-1,-5.874933600E-1,-2.093244642E-1
1.747005359E0,9.342369437E-1,-5.464806557E-1,-2.109223604E-1
1.749019519E0,8.841695189E-1,-5.326322317E-1,-2.125202566E-1
1.750972644E0,8.319715261E-1,-4.990763962E-1,-2.114549875E-1
1.752986804E0,7.691209316E-1,-4.735100567E-1,-2.247707993E-1
1.755000964E0,6.929545403E-1,-4.410194755E-1,-2.300971150E-1
1.756954089E0,6.098638773E-1,-4.090615511E-1,-2.418150306E-1
1.758937732E0,5.171858668E-1,-3.542004228E-1,-2.535329461E-1
1.760982410E0,4.239752591E-1,-2.940129936E-1,-2.673813701E-1
1.762935535E0,3.227751255E-1,-2.215750068E-1,-2.737729549E-1
1.764919177E0,2.221076339E-1,-1.374191195E-1,-2.790992856E-1
1.766902820E0,1.315601617E-1,-4.580637068E-2,-2.838929892E-1
1.768916980E0,4.261057824E-2,5.432848632E-2,-2.876214087E-1
1.770900623E0,-4.207794741E-2,1.571265012E-1,-2.881540358E-1
1.772884265E0,-1.145159304E-1,2.673813701E-1,-2.913498282E-1
1.774898425E0,-1.842907518E-1,3.781688809E-1,-2.908172011E-1
1.776912586E0,-2.530003190E-1,4.788363874E-1,-2.918824553E-1
1.778896228E0,-2.988066673E-1,5.731122494E-1,-2.950782478E-1
1.780910388E0,-3.392867148E-1,6.625944972E-1,-2.940129936E-1
1.782894031E0,-3.595267534E-1,7.414240837E-1,-2.924150825E-1
1.784908191E0,-3.680488765E-1,8.090683818E-1,-2.961435318E-1
1.786891834E0,-3.696467578E-1,8.735168576E-1,-2.956108749E-1
1.788875476E0,-3.632551730E-1,9.214537740E-1,-2.961435318E-1
1.790859119E0,-3.600593805E-1,9.539443254E-1,-2.966761589E-1
1.792873279E0,-3.760383427E-1,9.704559445E-1,-2.977414131E-1
1.794826404E0,-4.085289240E-1,9.784454107E-1,-3.025351167E-1
1.796810046E0,-4.527373910E-1,9.917612076E-1,-3.004045784E-1
1.798824207E0,-5.118595958E-1,9.906959534E-1,-3.030677438E-1
1.800868884E0,-5.784385800E-1,9.875001311E-1,-3.073287904E-1
1.802822009E0,-6.498113275E-1,9.560748339E-1,-3.099919558E-1
1.804805652E0,-7.259777188E-1,9.512811303E-1,-3.147856593E-1
1.806850330E0,-7.904262543E-1,9.661948681E-1,-3.169161677E-1
1.808833972E0,-8.463526368E-1,9.816411734E-1,-3.099919558E-1
1.810848132E0,-8.969526887E-1,9.896306992E-1,-3.030677438E-1
1.812831775E0,-9.454222322E-1,9.890980721E-1,-3.004045784E-1
1.814815418E0,-9.848369956E-1,1.003479123E0,-2.993393242E-1
1.816829578E0,-1.018392801E0,1.012533903E0,-3.025351167E-1
1.818843738E0,-1.046089649E0,1.029578090E0,-3.099919558E-1
1.820857898E0,-1.059938192E0,1.054611802E0,-3.222424984E-1
1.822811023E0,-1.069525480E0,1.084439158E0,-3.382214606E-1
1.824825183E0,-1.065264463E0,1.126517177E0,-3.643204570E-1
1.826839343E0,-1.065264463E0,1.116397142E0,-4.149205089E-1
1.828853504E0,-1.064199209E0,1.128115058E0,-4.554005563E-1
1.830806629E0,-1.062068701E0,1.120125532E0,-4.894890189E-1
1.832820789E0,-1.061536074E0,1.086037159E0,-5.139901042E-1
1.834834949E0,-1.058340192E0,1.042361259E0,-5.336974859E-1
1.836788074E0,-1.051416039E0,9.875001311E-1,-5.550028086E-1
1.838771716E0,-1.042361259E0,9.406285286E-1,-5.693838596E-1
1.840816394E0,-1.027447581E0,8.868326545E-1,-5.821670294E-1
1.842800037E0,-1.004544377E0,8.372978568E-1,-5.938849449E-1
1.844753162E0,-9.837717414E-1,7.632619739E-1,-6.034722924E-1
1.846736804E0,-9.534116983E-1,7.014766335E-1,-6.093312502E-1
1.848750964E0,-9.283779860E-1,6.380934119E-1,-6.151902080E-1
1.850734607E0,-9.097358584E-1,6.034722924E-1,-6.348975897E-1
1.852718250E0,-9.155948162E-1,4.767058492E-1,-6.364955306E-1
1.854701892E0,-9.219864011E-1,3.376888335E-1,-6.237123609E-1
1.856716052E0,-9.235842824E-1,2.173139453E-1,-6.194512844E-1
1.858730212E0,-9.187905788E-1,9.800432622E-2,-6.077333689E-1
1.860713855E0,-9.028116465E-1,-1.810949668E-2,-5.922870636E-1
1.862697498E0,-8.820389509E-1,-1.416801661E-1,-5.757754445E-1
1.864711658E0,-8.538094759E-1,-2.540655732E-1,-5.560680628E-1
1.866725818E0,-8.181231022E-1,-3.813646734E-1,-5.566006899E-1
1.868678943E0,-7.739146352E-1,-4.580637217E-1,-5.491438508E-1
1.870662586E0,-7.323693037E-1,-5.198490620E-1,-5.336974859E-1
1.872676746E0,-6.897587180E-1,-5.773733258E-1,-5.193164349E-1
1.874660388E0,-6.492787004E-1,-6.332997084E-1,-4.985437691E-1
1.876644031E0,-6.269081235E-1,-6.562029123E-1,-4.868258536E-1
1.878627673E0,-5.944175720E-1,-6.961503029E-1,-4.660531878E-1
1.880672351E0,-5.629922748E-1,-7.217166424E-1,-4.431500137E-1
1.882625476E0,-5.422195792E-1,-7.360977530E-1,-4.261057973E-1
1.884609119E0,-5.214469433E-1,-7.424893379E-1,-4.058657587E-1
1.886623279E0,-5.065332651E-1,-7.456851006E-1,-3.877562582E-1
1.888637439E0,-4.958806038E-1,-7.387608886E-1,-3.680488765E-1
1.890651599E0,-4.926848114E-1,-7.281082273E-1,-3.520699143E-1
1.892635242E0,-4.857605994E-1,-7.185208797E-1,-3.398193717E-1
1.894618884E0,-4.921521842E-1,-7.078682184E-1,-3.254382908E-1
1.896633045E0,-4.980111420E-1,-6.876282096E-1,-3.195793331E-1
1.898647205E0,-5.049353242E-1,-6.689860821E-1,-3.089267015E-1
1.900691882E0,-5.134574771E-1,-6.466155052E-1,-2.956108749E-1
1.902645007E0,-5.278385282E-1,-6.226470470E-1,-2.854908705E-1
1.904628650E0,-5.464806557E-1,-6.093312502E-1,-2.743056118E-1
1.906642810E0,-5.635249019E-1,-5.864281058E-1,-2.625876963E-1
1.908656970E0,-5.853627920E-1,-5.635249019E-1,-2.498045117E-1
1.910640613E0,-6.072007418E-1,-5.427522659E-1,-2.402171344E-1
1.912654773E0,-6.285060048E-1,-5.203816891E-1,-2.290318608E-1
1.914668933E0,-6.524744630E-1,-5.017395616E-1,-2.210423797E-1
1.916652576E0,-6.727145314E-1,-4.799016416E-1,-2.157160491E-1
1.918636218E0,-6.934871674E-1,-4.740426838E-1,-2.093244642E-1
1.920680896E0,-7.169229984E-1,-4.697816372E-1,-2.061286718E-1
1.922664539E0,-7.440872192E-1,-4.788363874E-1,-2.018676102E-1
1.924648181E0,-7.680556774E-1,-4.900216460E-1,-1.954760253E-1
1.926631824E0,-7.898935676E-1,-5.012069345E-1,-1.896170676E-1
1.928645984E0,-8.090683818E-1,-5.145227313E-1,-1.864212751E-1
1.930660144E0,-8.277105093E-1,-5.384911895E-1,-1.837581247E-1
1.932643787E0,-8.436894417E-1,-5.608617067E-1,-1.810949594E-1
1.934627429E0,-8.543421030E-1,-5.826996565E-1,-1.821602285E-1
1.936641589E0,-8.586031795E-1,-6.162554622E-1,-1.858886480E-1
1.938655750E0,-8.623315692E-1,-6.503439546E-1,-1.906823367E-1
1.940669910E0,-8.623315692E-1,-6.838997602E-1,-1.917476058E-1
1.942623035E0,-8.655273914E-1,-7.243798375E-1,-1.917476058E-1
1.944637195E0,-8.612663150E-1,-7.611314654E-1,-1.901497096E-1
1.946651355E0,-8.644620776E-1,-7.973504663E-1,-1.832254827E-1
1.948634998E0,-8.612663150E-1,-8.341020942E-1,-1.747033745E-1
1.950618640E0,-8.564726114E-1,-8.655273914E-1,-1.645833552E-1
1.952632800E0,-8.495483994E-1,-9.060074091E-1,-1.491370201E-1
1.954646961E0,-8.426241875E-1,-9.411611557E-1,-1.379517466E-1
1.956630603E0,-8.367652297E-1,-9.752495885E-1,-1.225054115E-1
1.958614246E0,-8.287757635E-1,-1.006674886E0,-1.081243455E-1
1.960658923E0,-8.234494328E-1,-1.039165497E0,-9.001484513E-2
1.962642566E0,-8.191883564E-1,-1.067394972E0,-7.403588295E-2
1.964626209E0,-8.170578480E-1,-1.090830803E0,-5.805691332E-2
1.966609851E0,-8.154599667E-1,-1.104146600E0,-4.154531285E-2
1.968624011E0,-8.101336360E-1,-1.107874990E0,-2.556634694E-2
1.970607654E0,-8.085356951E-1,-1.102548718E0,-9.587380104E-3
1.972591296E0,-8.064051867E-1,-1.083373904E0,8.522115648E-3
1.974574939E0,-8.053399324E-1,-1.055677056E0,2.663161233E-2
1.976558582E0,-8.037420511E-1,-1.024251819E0,3.994741663E-2
1.978572742E0,-8.080030680E-1,-9.773801565E-1,5.432848632E-2
1.980586902E0,-8.127967715E-1,-9.219864011E-1,6.711166352E-2
1.982540027E0,-8.202536106E-1,-8.527442217E-1,7.882957160E-2
1.984554187E0,-8.287757635E-1,-7.744472623E-1,9.054747969E-2
1.986568347E0,-8.404936790E-1,-6.913566589E-1,9.640643001E-2
1.988582507E0,-8.564726114E-1,-6.050702333E-1,1.001348570E-1
1.990535632E0,-8.735168576E-1,-5.150553584E-1,1.059938148E-1
1.992549793E0,-8.953547478E-1,-4.287689328E-1,1.038632840E-1
1.994533435E0,-9.139968753E-1,-3.371562064E-1,9.906959534E-2
1.996517078E0,-9.342369437E-1,-2.503371537E-1,1.001348570E-1
1.998500720E0,-9.560748339E-1,-1.688444167E-1,9.267801046E-2
2.000545398E0,-9.672601223E-1,-9.374327213E-2,8.522115648E-2
2.002498523E0,-9.784454107E-1,-1.757686399E-2,7.030745596E-2
2.004482166E0,-9.864348769E-1,5.060006306E-2,5.805691332E-2
2.006496326E0,-9.885654449E-1,1.177117229E-1,4.101268202E-2
2.008510486E0,-9.875001311E-1,1.752360016E-1,2.716424316E-2
2.010494129E0,-9.811085463E-1,2.332929224E-1,8.522115648E-3
2.012477771E0,-9.704559445E-1,2.902845740E-1,-1.065264456E-2
2.014491931E0,-9.614011645E-1,3.467435837E-1,-3.195793182E-2
2.016506091E0,-9.486179948E-1,4.042678475E-1,-4.953479767E-2
2.018489734E0,-9.353021979E-1,4.554005563E-1,-7.084008306E-2
2.020503894E0,-9.155948162E-1,4.990763962E-1,-9.374327213E-2
2.022487537E0,-8.990831971E-1,5.427522659E-1,-1.187769845E-1
2.024501697E0,-8.820389509E-1,5.704491138E-1,-1.432780623E-1
2.026515857E0,-8.612663150E-1,6.002765298E-1,-1.699096859E-1
2.028468982E0,-8.447546959E-1,6.237123609E-1,-1.944107562E-1
2.030452625E0,-8.218515515E-1,6.402239203E-1,-2.167813182E-1
2.032466785E0,-7.984157205E-1,6.444849968E-1,-2.428802997E-1
2.034450427E0,-7.728493810E-1,6.327670813E-1,-2.615224123E-1
2.036434070E0,-7.483482957E-1,6.173207760E-1,-2.817624509E-1
2.038448230E0,-7.217166424E-1,5.869607329E-1,-2.924150825E-1
2.040492908E0,-6.982808709E-1,5.534048676E-1,-3.014698327E-1
2.042446033E0,-6.865629554E-1,5.326322317E-1,-3.046656251E-1
2.044429675E0,-6.657902598E-1,4.868258536E-1,-3.046656251E-1
2.046443836E0,-6.471481323E-1,4.426173866E-1,-3.057309091E-1
2.048457996E0,-6.274407506E-1,3.930825889E-1,-3.004045784E-1
2.050472156E0,-6.103965044E-1,3.494067490E-1,-3.014698327E-1
2.052425281E0,-5.981460214E-1,3.036003709E-1,-2.966761589E-1
2.054408923E0,-5.864281058E-1,2.620550692E-1,-2.956108749E-1
2.056423084E0,-5.715143681E-1,2.322276533E-1,-2.918824553E-1
2.058437244E0,-5.571333170E-1,2.119876295E-1,-2.918824553E-1
2.060451404E0,-5.512743592E-1,1.885518134E-1,-2.924150825E-1
2.062404529E0,-5.448827744E-1,1.832254827E-1,-2.961435318E-1
2.064418689E0,-5.384911895E-1,1.763012707E-1,-2.977414131E-1
2.066432849E0,-5.342301130E-1,1.784317940E-1,-2.950782478E-1
2.068416492E0,-5.305017233E-1,1.731054783E-1,-2.865561247E-1
2.070400134E0,-5.305017233E-1,1.576591432E-1,-2.705771625E-1
2.072414295E0,-5.305017233E-1,1.443433315E-1,-2.545982003E-1
2.074397937E0,-5.342301130E-1,1.368864775E-1,-2.412824035E-1
2.076381580E0,-5.342301130E-1,1.278317273E-1,-2.290318608E-1
2.078395740E0,-5.390238166E-1,1.225054115E-1,-2.226402760E-1
2.080440418E0,-5.374259353E-1,1.129180342E-1,-2.151834220E-1
2.082393543E0,-5.395564437E-1,1.065264493E-1,-2.093244642E-1
2.084377185E0,-5.363606811E-1,1.012001261E-1,-2.066612989E-1
2.086391345E0,-5.384911895E-1,8.948221803E-2,-2.039981484E-1
2.088405505E0,-5.320996046E-1,7.829693705E-2,-2.018676102E-1
2.090389148E0,-5.241101384E-1,6.125270575E-2,-1.981391907E-1
2.092372791E0,-5.150553584E-1,4.207794741E-2,-1.901497096E-1
2.094386951E0,-5.044026971E-1,1.864212751E-2,-1.816275865E-1
2.096401111E0,-4.921521842E-1,-5.858954508E-3,-1.699096859E-1
2.098415271E0,-4.729774296E-1,-2.290318534E-2,-1.603222936E-1
2.100398914E0,-4.532700181E-1,-3.568635881E-2,-1.475391239E-1
2.102382556E0,-4.314320982E-1,-4.527373984E-2,-1.432780623E-1
2.104396716E0,-4.079962969E-1,-4.580637068E-2,-1.406149119E-1
2.106410877E0,-3.850930929E-1,-4.261057824E-2,-1.374191195E-1
2.108364002E0,-3.605920076E-1,-3.888215125E-2,-1.358212233E-1
2.110347644E0,-3.360909224E-1,-3.249056637E-2,-1.443433315E-1
2.112361804E0,-3.142530024E-1,-1.864212751E-2,-1.523328125E-1
2.114345447E0,-2.924150825E-1,-1.597896684E-3,-1.608549356E-1
2.116329089E0,-2.748382390E-1,2.716424316E-2,-1.789644361E-1
2.118312732E0,-2.551308274E-1,6.178534031E-2,-1.949433982E-1
2.120357410E0,-2.386192381E-1,9.960222989E-2,-2.135855258E-1
2.122310535E0,-2.231729031E-1,1.379517466E-1,-2.316950262E-1
2.124294177E0,-2.135855258E-1,1.810949594E-1,-2.519350350E-1
2.126308337E0,-2.050634027E-1,2.242381722E-1,-2.743056118E-1
2.128322498E0,-1.976065636E-1,2.652508616E-1,-3.009372056E-1
2.130336658E0,-1.912149638E-1,3.078614175E-1,-3.238403797E-1
2.132289783E0,-1.885518134E-1,3.403519988E-1,-3.414172530E-1
2.134273425E0,-1.816275865E-1,3.771036267E-1,-3.611246645E-1
2.136287586E0,-1.794970632E-1,4.143878818E-1,-3.845604658E-1
2.138301746E0,-1.800296903E-1,4.559331834E-1,-4.085289240E-1
2.140315906E0,-1.842907518E-1,4.980111420E-1,-4.324973822E-1
2.142269031E0,-1.912149638E-1,5.459480286E-1,-4.607268870E-1
2.144283191E0,-1.981391907E-1,6.045376062E-1,-4.884237647E-1
2.146297351E0,-2.109223604E-1,6.636597514E-1,-5.155879855E-1
2.148280994E0,-2.221076339E-1,7.211840153E-1,-5.464806557E-1
2.150264636E0,-2.386192381E-1,7.739146352E-1,-5.661880374E-1
2.152278796E0,-2.535329461E-1,8.245146871E-1,-5.922870636E-1
2.154262439E0,-2.705771625E-1,8.697884083E-1,-6.125270724E-1
2.156246082E0,-2.833603323E-1,9.123989940E-1,-6.301039457E-1
2.158229724E0,-3.046656251E-1,9.422264099E-1,-6.455502510E-1
2.160274402E0,-3.201119602E-1,9.693906307E-1,-6.562029123E-1
2.162227527E0,-3.296993375E-1,9.827064872E-1,-6.684534550E-1
2.164211170E0,-3.392867148E-1,9.906959534E-1,-6.748450398E-1
2.166225330E0,-3.366235793E-1,9.976201653E-1,-6.705839634E-1
2.168239490E0,-3.291667104E-1,1.007207513E0,-6.679208279E-1
2.170223132E0,-3.195793331E-1,1.014131784E0,-6.578007936E-1
2.172206775E0,-3.051982522E-1,1.016262293E0,-6.412891746E-1
2.174190418E0,-2.849582434E-1,1.019458055E0,-6.258428693E-1
2.176204578E0,-2.673813701E-1,1.017327547E0,-6.061354876E-1
2.178218738E0,-2.450108230E-1,1.020523310E0,-5.885586143E-1
2.180232898E0,-2.173139453E-1,1.001881242E0,-5.715143681E-1
2.182186023E0,-1.933455020E-1,9.901633263E-1,-5.555354357E-1
2.184200183E0,-1.645833552E-1,9.848369956E-1,-5.400890708E-1
2.186214343E0,-1.395496428E-1,9.720538259E-1,-5.273059011E-1
2.188197986E0,-1.113201380E-1,9.640643597E-1,-5.139901042E-1
2.190181629E0,-8.149272949E-2,9.486179948E-1,-5.060006380E-1
2.192195789E0,-6.072007492E-2,9.395632744E-1,-4.985437691E-1
2.194209949E0,-3.621899337E-2,9.289106131E-1,-4.926848114E-1
2.196193591E0,-8.522115648E-3,9.044095278E-1,-4.862932265E-1
2.198177234E0,2.130528912E-3,8.900284767E-1,-4.846953154E-1
2.200221912E0,4.048004746E-2,8.602010608E-1,-4.804342687E-1
2.202205554E0,5.539375171E-2,8.458199501E-1,-4.788363874E-1
2.204189197E0,8.894958347E-2,8.229168057E-1,-4.783037305E-1
2.206203357E0,1.097222418E-1,8.191883564E-1,-4.793690145E-1
2.208156482E0,1.406149119E-1,7.696535587E-1,-4.767058492E-1
2.210140125E0,1.864212751E-1,6.609966159E-1,-4.548679292E-1
2.212154285E0,2.247707993E-1,5.523396134E-1,-4.319647253E-1
2.214168445E0,2.647182047E-1,4.378236830E-1,-4.106594622E-1
2.216152087E0,3.046656251E-1,3.547330499E-1,-4.079962969E-1
2.218135730E0,3.318298757E-1,3.190467060E-1,-4.117247164E-1
2.220180408E0,3.515372574E-1,3.083940744E-1,-4.250405133E-1
2.222164050E0,3.701793849E-1,3.051982522E-1,-4.383563101E-1
2.224147693E0,3.882888854E-1,3.222424984E-1,-4.484763443E-1
2.226131336E0,4.000068009E-1,3.339604139E-1,-4.623247683E-1
2.228145496E0,4.058657587E-1,3.520699143E-1,-4.751079381E-1
2.230129138E0,4.149205089E-1,3.877562582E-1,-4.921521842E-1
2.232112781E0,4.229099751E-1,4.234426320E-1,-5.054680109E-1
2.234096423E0,4.271710515E-1,4.538026452E-1,-5.246427655E-1
2.236110584E0,4.308994710E-1,4.932174385E-1,-5.432848930E-1
2.238124744E0,4.404868484E-1,5.331648588E-1,-5.603290796E-1
2.240138904E0,4.426173866E-1,5.747101903E-1,-5.763080716E-1
2.242092029E0,4.436826408E-1,6.151902080E-1,-5.928196907E-1
2.244106189E0,4.447479248E-1,6.471481323E-1,-6.109291911E-1
2.246120349E0,4.410194755E-1,6.700513363E-1,-6.274407506E-1
2.248073474E0,4.324973822E-1,6.865629554E-1,-6.503439546E-1
2.250057117E0,4.223773479E-1,6.982808709E-1,-6.743124127E-1
2.252071277E0,4.149205089E-1,6.961503029E-1,-6.924219131E-1
2.254085437E0,3.968110085E-1,6.892260909E-1,-7.153250575E-1
2.256069080E0,3.808320463E-1,6.748450398E-1,-7.376956344E-1
2.258052722E0,3.653857112E-1,6.524744630E-1,-7.600662112E-1
2.260066882E0,3.504720032E-1,6.242449880E-1,-7.781757116E-1
2.262050525E0,3.392867148E-1,5.869607329E-1,-7.973504663E-1
2.264034168E0,3.265035450E-1,5.550028086E-1,-8.138620257E-1
2.266017810E0,3.174487948E-1,5.166532397E-1,-8.277105093E-1
2.268001453E0,3.089267015E-1,4.900216460E-1,-8.367652297E-1
2.270015613E0,3.083940744E-1,4.724447727E-1,-8.431568146E-1
2.271968738E0,3.089267015E-1,4.580637217E-1,-8.452873230E-1
2.273952380E0,3.099919558E-1,4.319647253E-1,-8.458199501E-1
2.275966541E0,3.126551211E-1,4.234426320E-1,-8.346347213E-1
2.277980701E0,3.153182864E-1,4.271710515E-1,-8.250473142E-1
2.279994861E0,3.185140789E-1,4.053331316E-1,-8.133293986E-1
2.281947986E0,3.249056637E-1,3.712446690E-1,-7.957525253E-1
2.283962146E0,3.323625028E-1,3.227751255E-1,-7.749798894E-1
2.285976306E0,3.462109566E-1,2.806971967E-1,-7.547398806E-1
2.287929431E0,3.600593805E-1,2.125202566E-1,-7.275756001E-1
2.289913074E0,3.771036267E-1,1.166464612E-1,-7.062703371E-1
2.291927234E0,3.984089196E-1,7.456851192E-3,-6.780408025E-1
2.293941394E0,4.181163013E-1,-1.027980223E-1,-6.503439546E-1
2.295955554E0,4.372910559E-1,-2.061286718E-1,-6.263754964E-1
2.297908679E0,4.564658105E-1,-3.083940744E-1,-5.954828262E-1
2.299922839E0,4.761732221E-1,-4.005394280E-1,-5.651227832E-1
2.301906482E0,4.958806038E-1,-4.671184719E-1,-5.315669775E-1
2.303890125E0,5.022721887E-1,-5.065332651E-1,-4.942827225E-1
2.305873767E0,5.060006380E-1,-5.241101384E-1,-4.506068528E-1
2.307857410E0,5.022721887E-1,-5.289037824E-1,-4.000068009E-1
2.309871570E0,4.932174385E-1,-5.273059011E-1,-3.472762108E-1
2.311824695E0,4.788363874E-1,-5.209143162E-1,-2.908172011E-1
2.313808337E0,4.569984376E-1,-4.985437691E-1,-2.316950262E-1
2.315822498E0,4.335626364E-1,-4.713795185E-1,-1.709749401E-1
2.317836658E0,4.021373391E-1,-4.319647253E-1,-1.049285457E-1
2.319850818E0,3.696467578E-1,-3.866910040E-1,-3.728425503E-2
2.321803943E0,3.334277868E-1,-3.302319944E-1,3.036003746E-2
2.323818103E0,2.934803665E-1,-2.668487430E-1,9.800432622E-2
2.325832263E0,2.535329461E-1,-1.880191714E-1,1.656486243E-1
2.327815906E0,2.071939409E-1,-1.070590764E-1,2.258360684E-1
2.329799548E0,1.837581247E-1,-6.817692518E-2,2.556634545E-1
2.331783191E0,1.299622655E-1,3.728425596E-3,3.073287904E-1
2.333797351E0,7.616640627E-2,7.936219871E-2,3.504720032E-1
2.335811511E0,1.704423130E-2,1.528654546E-1,3.808320463E-1
2.337764636E0,-3.941478580E-2,2.284992188E-1,3.989415467E-1
2.339778796E0,-9.693906456E-2,3.009372056E-1,4.095941782E-1
2.341762439E0,-1.480717659E-1,3.648530841E-1,4.191815555E-1
2.343776599E0,-1.992044598E-1,4.122573435E-1,4.229099751E-1
2.345729724E0,-2.434129268E-1,4.506068528E-1,4.282363057E-1
2.347713367E0,-2.759034932E-1,4.745753109E-1,4.367584288E-1
2.349727527E0,-3.030677438E-1,4.889563918E-1,4.442152679E-1
2.351711170E0,-3.217098713E-1,4.873584807E-1,4.479437172E-1
2.353694812E0,-3.296993375E-1,4.836300611E-1,4.559331834E-1
2.355678455E0,-3.249056637E-1,4.761732221E-1,4.596616030E-1
2.357692615E0,-3.115898669E-1,4.740426838E-1,4.660531878E-1
2.359706775E0,-2.908172011E-1,4.655205607E-1,4.836300611E-1
2.361659900E0,-2.631203234E-1,4.538026452E-1,4.964132309E-1
2.363674060E0,-2.284992188E-1,4.378236830E-1,5.161206126E-1
2.365688220E0,-1.917476058E-1,4.218447208E-1,5.347627401E-1
2.367671863E0,-1.502022892E-1,4.048005044E-1,5.576659441E-1
2.369655505E0,-1.049285457E-1,3.792341352E-1,5.826996565E-1
2.371639148E0,-6.018744037E-2,3.440804183E-1,6.077333689E-1
2.373653308E0,-1.917476021E-2,2.961435318E-1,6.338323355E-1
2.375667468E0,2.982740477E-2,2.306297570E-1,6.620618701E-1
2.377620593E0,7.297061384E-2,1.677791476E-1,6.886934638E-1
2.379634754E0,1.166464612E-1,9.214537591E-2,7.131945491E-1
2.381618396E0,1.608549356E-1,1.384843793E-2,7.355651259E-1
2.383602039E0,2.024002522E-1,-6.391586363E-2,7.558051348E-1
2.385585681E0,2.434129268E-1,-1.400822699E-1,7.749798894E-1
2.387569324E0,2.759034932E-1,-2.029328793E-1,7.968178391E-1
2.389552966E0,3.078614175E-1,-2.679139972E-1,8.159925938E-1
2.391536609E0,3.392867148E-1,-3.334277868E-1,8.319715261E-1
2.393550769E0,3.643204570E-1,-3.850930929E-1,8.500810266E-1
2.395564929E0,3.872236311E-1,-4.239752591E-1,8.649947643E-1
2.397548572E0,4.085289240E-1,-4.628573954E-1,8.841695189E-1
2.399562732E0,4.271710515E-1,-5.012069345E-1,8.964200616E-1
2.401546375E0,4.431500137E-1,-5.246427655E-1,9.017463326E-1
2.403560535E0,4.585963488E-1,-5.384911895E-1,9.102684855E-1
2.405544177E0,4.740426838E-1,-5.464806557E-1,9.108011127E-1
2.407527820E0,4.799016416E-1,-5.363606811E-1,9.102684855E-1
2.409511462E0,4.820321798E-1,-5.320996046E-1,9.049421549E-1
2.411525623E0,4.830974340E-1,-5.347627401E-1,8.953547478E-1
2.413509265E0,4.825648069E-1,-5.384911895E-1,8.873652816E-1
2.415492908E0,4.825648069E-1,-5.384911895E-1,8.740494847E-1
2.417507068E0,4.809668958E-1,-5.305017233E-1,8.532768488E-1
2.419551746E0,4.825648069E-1,-5.182511806E-1,8.330367804E-1
2.421504871E0,4.884237647E-1,-4.937500656E-1,8.021441102E-1
2.423488513E0,4.958806038E-1,-4.655205607E-1,7.696535587E-1
2.425472156E0,4.942827225E-1,-4.383563101E-1,7.387608886E-1
2.427486316E0,4.921521842E-1,-4.016047120E-1,7.094660997E-1
2.429469959E0,4.846953154E-1,-3.621899188E-1,6.753776670E-1
2.431453601E0,4.799016416E-1,-3.169161677E-1,6.434197426E-1
2.433467761E0,4.809668958E-1,-2.663161159E-1,6.141249537E-1
2.435481921E0,4.841626883E-1,-2.178465873E-1,5.832322836E-1
2.437465564E0,4.788363874E-1,-1.672465205E-1,5.587311983E-1
2.439479724E0,4.676510990E-1,-1.129180342E-1,5.374259353E-1
2.441463367E0,4.596616030E-1,-5.432848632E-2,5.225121975E-1
2.443477527E0,4.527373910E-1,7.456851192E-3,5.060006380E-1
2.445461170E0,4.495415986E-1,7.137271762E-2,4.905542731E-1
2.447444812E0,4.479437172E-1,1.219727769E-1,4.820321798E-1
2.449428455E0,4.447479248E-1,1.539307088E-1,4.772384763E-1
2.451442615E0,4.452805519E-1,1.736381054E-1,4.745753109E-1
2.453456775E0,4.495415986E-1,1.928128600E-1,4.735100567E-1
2.455440418E0,4.516721368E-1,2.039981484E-1,4.729774296E-1
2.457424060E0,4.495415986E-1,1.997370869E-1,4.713795185E-1
2.459438220E0,4.484763443E-1,1.960086524E-1,4.655205607E-1
2.461421863E0,4.458131790E-1,1.976065636E-1,4.575310946E-1
2.463405505E0,4.356931746E-1,1.789644361E-1,4.468784332E-1
2.465389148E0,4.266384244E-1,1.832254827E-1,4.340952635E-1
2.467403308E0,4.085289240E-1,1.992044598E-1,4.207794666E-1
2.469386951E0,3.914846778E-1,2.135855258E-1,4.101268053E-1
2.471370593E0,3.701793849E-1,2.109223604E-1,4.048005044E-1
2.473384754E0,3.456783295E-1,2.157160491E-1,4.111920893E-1
2.475398914E0,3.105245829E-1,2.205097377E-1,4.127899706E-1
2.477413074E0,2.822950780E-1,2.300971150E-1,4.085289240E-1
2.479396716E0,2.577939928E-1,2.311623842E-1,4.032025933E-1
2.481349841E0,2.306297570E-1,2.269013226E-1,3.909520507E-1
2.483364002E0,1.997370869E-1,2.396845073E-1,3.824299276E-1
2.485347644E0,1.635181010E-1,2.593919039E-1,3.749730885E-1
2.487331287E0,1.246359423E-1,2.604571581E-1,3.712446690E-1
2.489314929E0,9.906959534E-2,2.743056118E-1,3.573962152E-1
2.491329089E0,8.788431436E-2,2.934803665E-1,3.398193717E-1
2.493312732E0,9.534116834E-2,3.440804183E-1,3.185140789E-1
2.495296375E0,8.628641814E-2,3.296993375E-1,3.296993375E-1
2.497280017E0,6.072007492E-2,2.801645398E-1,3.419498801E-1
2.499324695E0,2.929477207E-2,2.130528986E-1,3.382214606E-1
2.501277820E0,-4.793690052E-3,1.411475390E-1,3.233077526E-1
2.503261462E0,-3.408846259E-2,5.965480953E-2,2.977414131E-1
2.505275623E0,-6.072007492E-2,1.810949668E-2,2.743056118E-1
2.507289783E0,-8.681905270E-2,-1.544633508E-2,2.551308274E-1
2.509273425E0,-9.906959534E-2,-3.994741663E-2,2.418150306E-1
2.511257068E0,-1.081243455E-1,-5.486112088E-2,2.306297570E-1
2.513271228E0,-1.081243455E-1,-8.149272949E-2,2.183792144E-1
2.515285388E0,-1.043959185E-1,-1.107875034E-1,2.082591951E-1
2.517299548E0,-1.012001261E-1,-1.326254308E-1,1.970739216E-1
2.519313709E0,-9.054747969E-2,-1.507349163E-1,1.874865443E-1
2.521266834E0,-7.456851006E-2,-1.635181010E-1,1.853560209E-1
2.523280994E0,-5.166532472E-2,-1.704423130E-1,1.816275865E-1
2.525295154E0,-3.089267015E-2,-1.715075821E-1,1.768338978E-1
2.527278796E0,-2.237055451E-2,-1.704423130E-1,1.789644361E-1
2.529262439E0,-2.503371425E-2,-1.661812514E-1,1.826928556E-1
2.531246082E0,-3.142530099E-2,-1.619201899E-1,1.880191714E-1
2.533260242E0,-3.621899337E-2,-1.502022892E-1,1.986718178E-1
2.535274402E0,-4.900216311E-2,-1.390170157E-1,2.109223604E-1
2.537227527E0,-7.350324839E-2,-1.320927888E-1,2.242381722E-1
2.539241687E0,-1.049285457E-1,-1.102548689E-1,2.386192381E-1
2.541225330E0,-1.320927888E-1,-8.575379103E-2,2.514024079E-1
2.543239490E0,-1.581917703E-1,-6.125270575E-2,2.625876963E-1
2.545192615E0,-1.736381054E-1,-3.036003746E-2,2.711097896E-1
2.547176257E0,-1.890844405E-1,2.130528912E-3,2.817624509E-1
2.549159900E0,-2.263686955E-1,4.207794741E-2,2.929477394E-1
2.551143543E0,-2.641855776E-1,7.243798673E-2,2.924150825E-1
2.553157703E0,-3.020024598E-1,1.059938148E-1,2.934803665E-1
2.555171863E0,-3.376888335E-1,1.422128081E-1,2.956108749E-1
2.557186023E0,-3.675162494E-1,1.906823367E-1,3.030677438E-1
2.559200183E0,-4.000068009E-1,2.354234457E-1,3.062635362E-1
2.561153308E0,-4.314320982E-1,2.727077007E-1,3.179814517E-1
2.563167468E0,-4.516721368E-1,3.078614175E-1,3.275688291E-1
2.565181629E0,-4.580637217E-1,3.350256681E-1,3.419498801E-1
2.567165271E0,-4.569984376E-1,3.568635881E-1,3.600593805E-1
2.569148914E0,-4.527373910E-1,3.664509654E-1,3.797667921E-1
2.571132556E0,-4.596616030E-1,3.499393761E-1,3.978762627E-1
2.573146716E0,-4.719121456E-1,3.211772442E-1,4.170510471E-1
2.575160877E0,-4.846953154E-1,2.801645398E-1,4.356931746E-1
2.577144519E0,-4.932174385E-1,2.508697808E-1,4.516721368E-1
2.579158679E0,-5.038700700E-1,2.263686955E-1,4.633900523E-1
2.581142322E0,-5.145227313E-1,2.002697140E-1,4.756405652E-1
2.583156482E0,-5.209143162E-1,1.731054783E-1,4.878911078E-1
2.585140125E0,-5.097290277E-1,1.486043930E-1,5.028048158E-1
2.587123767E0,-4.894890189E-1,1.241033077E-1,5.107942820E-1
2.589107410E0,-4.761732221E-1,1.054611802E-1,5.171858668E-1
2.591091052E0,-4.628573954E-1,9.480853379E-2,5.198490620E-1
2.593074695E0,-4.500742257E-1,8.788431436E-2,5.166532397E-1
2.595058337E0,-4.388889670E-1,8.841694891E-2,5.182511806E-1
2.597072498E0,-4.085289240E-1,9.960222989E-2,5.145227313E-1
2.599117175E0,-3.723099232E-1,1.081243455E-1,4.985437691E-1
2.601039783E0,-3.696467578E-1,1.065264493E-1,4.852279723E-1
2.603023425E0,-3.520699143E-1,1.081243455E-1,4.660531878E-1
2.605068103E0,-3.302319944E-1,1.086569726E-1,4.436826408E-1
2.607051746E0,-3.227751255E-1,1.134506613E-1,4.143878818E-1
2.609065906E0,-3.179814517E-1,1.177117229E-1,3.755057156E-1
2.611049548E0,-3.115898669E-1,1.257012039E-1,3.392867148E-1
2.613033191E0,-3.121224940E-1,1.331580579E-1,3.051982522E-1
2.615016834E0,-3.190467060E-1,1.347559541E-1,2.545982003E-1
2.617030994E0,-3.392867148E-1,1.395496428E-1,2.082591951E-1
2.619045154E0,-3.637878001E-1,1.443433315E-1,1.592570394E-1
2.620998279E0,-3.818973005E-1,1.571265012E-1,1.219727769E-1
2.622981921E0,-3.861583769E-1,1.704423130E-1,9.853696078E-2
2.624996082E0,-3.792341352E-1,1.885518134E-1,7.829693705E-2
2.627010242E0,-3.680488765E-1,2.098570913E-1,5.432848632E-2
2.628963367E0,-3.547330499E-1,2.231729031E-1,3.462109342E-2
2.630977527E0,-3.366235793E-1,2.332929224E-1,1.491370238E-2
2.632991687E0,-3.222424984E-1,2.466087192E-1,-1.065264456E-3
2.634944812E0,-3.020024598E-1,2.498045117E-1,-1.864212751E-2
2.636928455E0,-2.934803665E-1,2.364887148E-1,-3.408846259E-2
2.638973132E0,-2.870887816E-1,2.162486911E-1,-4.953479767E-2
2.640926257E0,-2.897519469E-1,1.922802329E-1,-5.805691332E-2
2.642909900E0,-2.860234976E-1,1.677791476E-1,-6.498113275E-2
2.644893543E0,-2.801645398E-1,1.480717659E-1,-6.391586363E-2
2.646907703E0,-2.711097896E-1,1.187769845E-1,-6.551376730E-2
2.648921863E0,-2.652508616E-1,9.853696078E-2,-6.711166352E-2
2.650905505E0,-2.583266199E-1,9.108011425E-2,-7.030745596E-2
2.652889148E0,-2.476739883E-1,9.374327213E-2,-7.243798673E-2
2.654903308E0,-2.423476577E-1,1.001348570E-1,-7.084008306E-2
2.656917468E0,-2.396845073E-1,1.070590764E-1,-7.456851006E-2
2.658962146E0,-2.375539690E-1,1.118527651E-1,-6.977482140E-2
2.660915271E0,-2.316950262E-1,1.161138266E-1,-5.379585549E-2
2.662898914E0,-2.306297570E-1,1.241033077E-1,-3.036003746E-2
2.664913074E0,-2.226402760E-1,1.283643693E-1,-3.728425596E-3
2.666927234E0,-2.135855258E-1,1.326254308E-1,2.929477207E-2
2.668910877E0,-2.055960447E-1,1.326254308E-1,6.657902896E-2
2.670894519E0,-1.938781291E-1,1.294296384E-1,1.043959185E-1
2.672908679E0,-1.789644361E-1,1.230380461E-1,1.406149119E-1
2.674922839E0,-1.560612470E-1,1.177117229E-1,1.688444167E-1
2.676875964E0,-1.267664731E-1,1.118527651E-1,1.970739216E-1
2.678890125E0,-9.054747969E-2,1.097222418E-1,2.263686955E-1
2.680873767E0,-5.113269389E-2,1.065264493E-1,2.530003190E-1
2.682887927E0,-1.065264456E-2,1.155811921E-1,2.801645398E-1
2.684841052E0,2.822950855E-2,1.251685768E-1,3.094593287E-1
2.686824695E0,6.817692518E-2,1.310275346E-1,3.408846259E-1
2.688808337E0,1.022653878E-1,1.326254308E-1,3.712446690E-1
2.690791980E0,1.379517466E-1,1.352885813E-1,3.989415467E-1
2.692775623E0,1.683117896E-1,1.347559541E-1,4.261057973E-1
2.694789783E0,1.922802329E-1,1.235706806E-1,4.490089715E-1
2.696803943E0,2.061286718E-1,1.012001261E-1,4.655205607E-1
2.698787586E0,2.178465873E-1,8.522115648E-2,4.820321798E-1
2.700740711E0,2.247707993E-1,7.030745596E-2,4.926848114E-1
2.702754871E0,2.231729031E-1,5.432848632E-2,5.012069345E-1
2.704769031E0,2.183792144E-1,4.207794741E-2,5.075985193E-1
2.706722156E0,2.050634027E-1,3.462109342E-2,5.123922229E-1
2.708736316E0,1.821602285E-1,1.970739290E-2,5.129248500E-1
2.710750476E0,1.549959779E-1,1.597896684E-3,5.139901042E-1
2.712703601E0,1.251685768E-1,-1.012001187E-2,5.065332651E-1
2.714687244E0,8.309062570E-2,-2.237055451E-2,4.900216460E-1
2.716701404E0,4.101268202E-2,-2.822950855E-2,4.708468914E-1
2.718746082E0,-8.522115648E-3,-3.675162420E-2,4.532700181E-1
2.720699207E0,-5.965480953E-2,-3.941478580E-2,4.340952635E-1
2.722682849E0,-1.123853996E-1,-3.888215125E-2,4.202468395E-1
2.724697009E0,-1.688444167E-1,-4.261057824E-2,4.037352204E-1
2.726711170E0,-2.199771106E-1,-4.687163606E-2,3.952131271E-1
2.728694812E0,-2.753708661E-1,-4.048004746E-2,3.739078343E-1
2.730678455E0,-3.036003709E-1,-3.142530099E-2,3.611246645E-1
2.732692615E0,-3.547330499E-1,-1.171790902E-2,3.318298757E-1
2.734706775E0,-4.085289240E-1,1.491370238E-2,3.036003709E-1
2.736690418E0,-4.511395097E-1,4.048004746E-2,2.737729549E-1
2.738704578E0,-4.948153496E-1,7.456851006E-2,2.498045117E-1
2.740688220E0,-5.427522659E-1,1.043959185E-1,2.269013226E-1
2.742702380E0,-5.789712071E-1,1.390170157E-1,2.210423797E-1
2.744716541E0,-6.130596995E-1,1.725728363E-1,2.167813182E-1
2.746669666E0,-6.428871155E-1,2.130528986E-1,2.114549875E-1
2.748653308E0,-6.641923785E-1,2.545982003E-1,1.954760253E-1
2.750667468E0,-6.753776670E-1,2.902845740E-1,1.768338978E-1
2.752651111E0,-6.838997602E-1,3.296993375E-1,1.518001854E-1
2.754634754E0,-6.833671331E-1,3.568635881E-1,1.368864775E-1
2.756618396E0,-6.876282096E-1,3.739078343E-1,1.257012039E-1
2.758663074E0,-6.812366247E-1,3.973436356E-1,1.182443574E-1
2.760616199E0,-6.721818447E-1,4.207794666E-1,1.225054115E-1
2.762599841E0,-6.620618701E-1,4.372910559E-1,1.310275346E-1
2.764614002E0,-6.503439546E-1,4.522047639E-1,1.448759735E-1
2.766628162E0,-6.450176239E-1,4.649879336E-1,1.677791476E-1
2.768642322E0,-6.338323355E-1,4.814995229E-1,1.906823367E-1
2.770625964E0,-6.167881489E-1,5.081311464E-1,2.066612989E-1
2.772609607E0,-5.976133347E-1,5.390238166E-1,2.263686955E-1
2.774623767E0,-5.768406987E-1,5.597964525E-1,2.396845073E-1
2.776637927E0,-5.581985712E-1,5.640575290E-1,2.599245310E-1
2.778682605E0,-5.374259353E-1,5.560680628E-1,2.876214087E-1
2.780605212E0,-5.267732739E-1,5.384911895E-1,3.099919558E-1
2.782619373E0,-5.150553584E-1,5.102616549E-1,3.259709179E-1
2.784633533E0,-4.980111420E-1,4.777711034E-1,3.414172530E-1
2.786647693E0,-4.719121456E-1,4.367584288E-1,3.542004228E-1
2.788631336E0,-4.410194755E-1,3.850930929E-1,3.669835925E-1
2.790645496E0,-4.095941782E-1,3.296993375E-1,3.787015080E-1
2.792659656E0,-3.749730885E-1,2.711097896E-1,3.909520507E-1
2.794643298E0,-3.360909224E-1,2.098570913E-1,4.053331316E-1
2.796626941E0,-2.972087860E-1,1.443433315E-1,4.149205089E-1
2.798641101E0,-2.636529505E-1,7.723167539E-2,4.319647253E-1
2.800624744E0,-2.306297570E-1,1.970739290E-2,4.463458061E-1
2.802608386E0,-2.013349831E-1,-2.822950855E-2,4.564658105E-1
2.804592029E0,-1.747033745E-1,-7.510114461E-2,4.751079381E-1
2.806575671E0,-1.384843737E-1,-1.145159304E-1,5.001416802E-1
2.808589832E0,-1.033306494E-1,-1.475391239E-1,5.198490620E-1
2.810573474E0,-7.030745596E-2,-1.768338978E-1,5.320996046E-1
2.812557117E0,-3.834952042E-2,-1.997370869E-1,5.395564437E-1
2.814540759E0,-1.491370238E-2,-2.263686955E-1,5.454154015E-1
2.816554920E0,3.195793368E-3,-2.556634545E-1,5.544701219E-1
2.818599597E0,2.183792181E-2,-2.865561247E-1,5.576659441E-1
2.820552722E0,4.420847446E-2,-3.025351167E-1,5.544701219E-1
2.822536365E0,5.805691332E-2,-3.099919558E-1,5.507417321E-1
2.824550525E0,7.350324839E-2,-3.201119602E-1,5.448827744E-1
2.826564685E0,7.989483327E-2,-3.233077526E-1,5.438175201E-1
2.828548328E0,8.894958347E-2,-3.142530024E-1,5.454154015E-1
2.830531970E0,9.640643001E-2,-3.121224940E-1,5.470132828E-1
2.832546130E0,1.017327532E-1,-3.004045784E-1,5.576659441E-1
2.834560291E0,1.049285457E-1,-2.897519469E-1,5.693838596E-1
2.836543933E0,1.027980223E-1,-2.790992856E-1,5.848301649E-1
2.838558093E0,1.049285457E-1,-2.753708661E-1,6.087986231E-1
2.840541736E0,1.022653878E-1,-2.753708661E-1,6.359629035E-1
2.842555896E0,1.022653878E-1,-2.743056118E-1,6.636597514E-1
2.844539539E0,1.038632840E-1,-2.753708661E-1,6.929545403E-1
2.846523181E0,1.059938148E-1,-2.790992856E-1,7.254450917E-1
2.848506824E0,1.022653878E-1,-2.833603323E-1,7.600662112E-1
2.850520984E0,9.640643001E-2,-2.844256163E-1,7.962851524E-1
2.852504627E0,8.894958347E-2,-2.929477394E-1,8.298410177E-1
2.854488269E0,8.468852192E-2,-3.030677438E-1,8.548747301E-1
2.856502429E0,8.255799860E-2,-3.169161677E-1,8.878979087E-1
2.858547107E0,7.882957160E-2,-3.414172530E-1,9.321063757E-1
2.860500232E0,7.989483327E-2,-3.648530841E-1,9.624664187E-1
2.862483875E0,7.616640627E-2,-3.968110085E-1,9.960222840E-1
2.864467517E0,7.936219871E-2,-4.335626364E-1,1.033839107E0
2.866481677E0,8.202536404E-2,-4.777711034E-1,1.071123362E0
2.868465320E0,8.575379103E-2,-5.182511806E-1,1.100950837E0
2.870448962E0,8.309062570E-2,-5.534048676E-1,1.125984550E0
2.872463123E0,8.575379103E-2,-5.896238685E-1,1.138767719E0
2.874477283E0,9.161274135E-2,-6.205165386E-1,1.152083516E0
2.876491443E0,1.017327532E-1,-6.396912932E-1,1.175519347E0
2.878475086E0,1.097222418E-1,-6.535397172E-1,1.203748822E0
2.880458728E0,1.209075153E-1,-6.854977012E-1,1.233043551E0
2.882472888E0,1.331580579E-1,-7.344998717E-1,1.258610010E0
2.884456531E0,1.507349163E-1,-8.058725595E-1,1.277252078E0
2.886440173E0,1.661812514E-1,-8.878979087E-1,1.302285790E0
2.888423816E0,1.667138934E-1,-9.294432402E-1,1.310275316E0
2.890437976E0,1.789644361E-1,-1.019458055E0,1.333711147E0
2.892421619E0,1.853560209E-1,-1.114799261E0,1.352353215E0
2.894405261E0,1.848233789E-1,-1.210673094E0,1.369397402E0
2.896419421E0,1.901497096E-1,-1.316134214E0,1.390170097E0
2.898464099E0,1.906823367E-1,-1.408812284E0,1.399757504E0
2.900417224E0,1.917476058E-1,-1.499359727E0,1.407214403E0
2.902400867E0,1.864212751E-1,-1.588309288E0,1.422128081E0
2.904415027E0,1.837581247E-1,-1.670867324E0,1.439172268E0
2.906429187E0,1.794970632E-1,-1.741174698E0,1.478054404E0
2.908412830E0,1.651159972E-1,-1.794438004E0,1.539839745E0
2.910396472E0,1.486043930E-1,-1.835983276E0,1.615473509E0
2.912410632E0,1.214401498E-1,-1.823200107E0,1.704423189E0
2.914424793E0,7.936219871E-2,-1.799231648E0,1.801894784E0
2.916408435E0,3.089267015E-2,-1.774197936E0,1.910551786E0
2.918422595E0,-3.036003746E-2,-1.735848427E0,2.018676043E0
2.920375720E0,-9.374327213E-2,-1.690574646E0,2.137985706E0
2.922389880E0,-1.549959779E-1,-1.644768357E0,2.257295370E0
2.924373523E0,-2.215750068E-1,-1.595233560E0,2.372344017E0
2.926357166E0,-2.881540358E-1,-1.532915592E0,2.495382071E0
2.928340808E0,-3.542004228E-1,-1.459944963E0,2.612560987E0
2.930354968E0,-4.079962969E-1,-1.390170097E0,2.731338024E0
2.932369129E0,-4.484763443E-1,-1.319329977E0,2.849049807E0
2.934322254E0,-4.820321798E-1,-1.253283620E0,2.963033199E0
2.936305896E0,-5.065332651E-1,-1.191498280E0,3.065298557E0
2.938350574E0,-5.336974859E-1,-1.126517177E0,3.159574270E0
2.940334216E0,-5.432848930E-1,-1.097222447E0,3.258111238E0
2.942317859E0,-5.539374948E-1,-1.084971905E0,3.355050325E0
2.944301502E0,-5.645901561E-1,-1.068992853E0,3.445597887E0
2.946315662E0,-5.768406987E-1,-1.063666582E0,3.530286312E0
2.948299304E0,-5.944175720E-1,-1.060470819E0,3.603256941E0
2.950282947E0,-6.061354876E-1,-1.111070871E0,3.686880350E0
2.952266589E0,-6.130596995E-1,-1.204814076E0,3.776362419E0
2.954280750E0,-6.253102422E-1,-1.302818418E0,3.855192184E0
2.956294910E0,-6.301039457E-1,-1.395496488E0,3.922303677E0
2.958278552E0,-6.412891746E-1,-1.502555490E0,3.986752272E0
2.960231677E0,-6.636597514E-1,-1.614408255E0,4.038417339E0
2.962245837E0,-6.817692518E-1,-1.722532630E0,4.078897476E0
2.964259998E0,-6.961503029E-1,-1.844505429E0,4.115649223E0
2.966213123E0,-7.030745149E-1,-1.951031804E0,4.137486935E0
2.968196765E0,-7.137271762E-1,-2.034655094E0,4.142281055E0
2.970210925E0,-7.174556255E-1,-2.082592010E0,4.134291172E0
2.972194568E0,-7.201187611E-1,-2.120941639E0,4.091148376E0
2.974178211E0,-7.286409140E-1,-2.152899504E0,3.996872187E0
2.976161853E0,-7.547398806E-1,-2.160888910E0,3.845072031E0
2.978206531E0,-7.813714743E-1,-2.160888910E0,3.645334959E0
2.980159656E0,-8.245146871E-1,-2.140648842E0,3.408846378E0
2.982143298E0,-8.751147389E-1,-2.105495214E0,3.138269186E0
2.984157459E0,-9.267801046E-1,-2.008556128E0,2.848517179E0
2.986171619E0,-9.731190801E-1,-1.807221174E0,2.567820072E0
2.988155261E0,-1.021588564E0,-1.536111355E0,2.324939728E0
2.990138904E0,-1.058872819E0,-1.229315162E0,2.111354113E0
2.992122546E0,-1.086569786E0,-9.187905788E-1,1.931324482E0
2.994136707E0,-1.130245566E0,-6.317018270E-1,1.764077902E0
2.996150867E0,-1.171790957E0,-3.856257200E-1,1.608016729E0
2.998165027E0,-1.218129873E0,-1.672465205E-1,1.468999743E0
3.000118152E0,-1.276719451E0,1.917476021E-2,1.349157453E0
3.002132312E0,-1.333178520E0,1.778991669E-1,1.273523688E0
3.004176990E0,-1.383778572E0,3.243730366E-1,1.254881501E0
3.006160632E0,-1.439704895E0,4.575310946E-1,1.262338400E0
3.008113757E0,-1.472195506E0,5.880259871E-1,1.279382586E0
3.010097400E0,-1.495098710E0,7.376956344E-1,1.302285790E0
3.012111560E0,-1.500424981E0,8.841695189E-1,1.327319503E0
3.014125720E0,-1.486043930E0,1.013599157E0,1.358744860E0
3.016139880E0,-1.464738607E0,1.139832973E0,1.381647944E0
3.018123523E0,-1.437041759E0,1.254881501E0,1.402953267E0
3.020076648E0,-1.402953267E0,1.365669012E0,1.422660708E0
3.022090808E0,-1.361407995E0,1.465271235E0,1.452488065E0
3.024074451E0,-1.318264723E0,1.520132422E0,1.488174438E0
3.026058093E0,-1.300155282E0,1.538774490E0,1.510545015E0
3.028072254E0,-1.254348874E0,1.559014559E0,1.555286050E0
3.030055896E0,-1.214401484E0,1.554753423E0,1.594168305E0
3.032039539E0,-1.179780364E0,1.544100881E0,1.636778831E0
3.034053699E0,-1.142496109E0,1.556351423E0,1.674063087E0
3.036067859E0,-1.108407617E0,1.574460864E0,1.709216833E0
3.038112537E0,-1.065264463E0,1.612810373E0,1.745435834E0
3.040065662E0,-1.018925428E0,1.668736815E0,1.778458953E0
3.042049304E0,-9.667274952E-1,1.747566342E0,1.804025412E0
3.044063464E0,-9.155948162E-1,1.841309667E0,1.824797988E0
3.046077625E0,-8.522115946E-1,1.937183380E0,1.842907548E0
3.048030750E0,-7.813714743E-1,1.999501348E0,1.860484362E0
3.050014392E0,-7.046724558E-1,2.047971010E0,1.882854939E0
3.052028552E0,-6.317018270E-1,2.067145586E0,1.906823397E0
3.054042712E0,-5.715143681E-1,2.070874214E0,1.938248634E0
3.055995837E0,-5.171858668E-1,2.060221434E0,1.976065516E0
3.058009998E0,-4.846953154E-1,2.031459332E0,2.017078161E0
3.059993640E0,-4.559331834E-1,1.981924534E0,2.040513992E0
3.061977283E0,-4.356931746E-1,1.914280176E0,2.057558298E0
3.063960925E0,-4.117247164E-1,1.814145327E0,2.063949823E0
3.065944568E0,-3.856257200E-1,1.698564172E0,2.061819315E0
3.067958728E0,-3.488741219E-1,1.579787135E0,2.050101519E0
3.069911853E0,-3.020024598E-1,1.464205980E0,2.026665688E0
3.071895496E0,-2.439455539E-1,1.363005877E0,2.006425619E0
3.073909656E0,-1.805623323E-1,1.266599417E0,1.971271873E0
3.075923816E0,-1.193096191E-1,1.190965652E0,1.923867583E0
3.077937976E0,-5.592638254E-2,1.129180312E0,1.867408633E0
3.079891101E0,2.130528912E-3,1.066329718E0,1.798699021E0
3.081905261E0,6.444849819E-2,1.009338021E0,1.724663138E0
3.083919421E0,1.283643693E-1,9.432916641E-1,1.659682035E0
3.085903064E0,1.842907518E-1,8.916263580E-1,1.598429322E0
3.087886707E0,2.439455539E-1,8.511462808E-1,1.539307117E0
3.089870349E0,3.004045784E-1,8.223841786E-1,1.495098710E0
3.091884509E0,3.520699143E-1,8.026767969E-1,1.453553319E0
3.093898670E0,4.037352204E-1,7.850999236E-1,1.420530200E0
3.095882312E0,4.569984376E-1,7.621967196E-1,1.388039589E0
3.097896472E0,5.060006380E-1,7.483482957E-1,1.358212233E0
3.099880115E0,5.512743592E-1,7.371630073E-1,1.321460605E0
3.101894275E0,5.976133347E-1,7.254450917E-1,1.283111095E0
3.103877918E0,6.301039457E-1,7.126619220E-1,1.248489976E0
3.105861560E0,6.652576327E-1,6.812366247E-1,1.214934111E0
3.107875720E0,6.950850487E-1,6.450176239E-1,1.180312991E0
3.109859363E0,7.217166424E-1,5.965480804E-1,1.140898228E0
3.111843005E0,7.456851006E-1,5.470132828E-1,1.110005617E0
3.113826648E0,7.723167539E-1,5.038700700E-1,1.079645514E0
3.115840808E0,7.994809747E-1,4.655205607E-1,1.058872819E0
3.117885486E0,8.239820600E-1,4.383563101E-1,1.038632870E0
3.119808093E0,8.522115946E-1,4.261057973E-1,1.017860174E0
3.121822254E0,8.767126203E-1,4.436826408E-1,9.976201653E-1
3.123836414E0,9.022790194E-1,4.793690145E-1,9.736517072E-1
3.125850574E0,9.289106131E-1,5.251753926E-1,9.534116983E-1
3.127834216E0,9.534116983E-1,5.768406987E-1,9.384979606E-1
3.129817859E0,9.741843343E-1,6.322344542E-1,9.219864011E-1
3.131832019E0,9.853696227E-1,6.961503029E-1,9.134642482E-1
3.133846179E0,9.997506738E-1,7.547398806E-1,9.049421549E-1
3.135829822E0,1.002946496E0,8.117315173E-1,9.022790194E-1
3.137843982E0,1.011468649E0,8.703210354E-1,9.006810784E-1
3.139827625E0,1.014664412E0,9.214537740E-1,9.049421549E-1
3.141841785E0,1.022653818E0,9.731190801E-1,9.113337398E-1
3.143825427E0,1.031175971E0,1.024251819E0,9.214537740E-1
3.145809070E0,1.029045463E0,1.063133955E0,9.379653335E-1
3.147792712E0,1.035437107E0,1.088700294E0,9.539443254E-1
3.149806873E0,1.038100243E0,1.108940244E0,9.667274952E-1
3.151790515E0,1.050883412E0,1.118527651E0,9.821738005E-1
3.153774158E0,1.070058107E0,1.129180312E0,9.954896569E-1
3.155788318E0,1.094559193E0,1.130245566E0,1.017860174E0
3.157832996E0,1.120125532E0,1.123321414E0,1.038632870E0
3.159786121E0,1.151550889E0,1.111070871E0,1.053546548E0
3.161769763E0,1.192030907E0,1.096157074E0,1.072721362E0
3.163783923E0,1.230380416E0,1.081243396E0,1.091896057E0
3.165798084E0,1.271393180E0,1.060470819E0,1.106809735E0
3.167812244E0,1.311873198E0,1.032773852E0,1.124919295E0
3.169826404E0,1.345429063E0,9.981527925E-1,1.143561363E0
3.171779529E0,1.373125911E0,9.555422068E-1,1.165399313E0
3.173763171E0,1.385376453E0,9.321063757E-1,1.173921466E0
3.175777332E0,1.402420640E0,8.756473660E-1,1.189900398E0
3.177822009E0,1.417866945E0,7.866978049E-1,1.208542466E0
3.179775134E0,1.418399572E0,7.552725077E-1,1.213868856E0
3.181758777E0,1.414138556E0,6.727145314E-1,1.218662500E0
3.183772937E0,1.397626996E0,5.752428174E-1,1.213868856E0
3.185787097E0,1.376321673E0,4.639226794E-1,1.208542466E0
3.187770740E0,1.346494317E0,3.440804183E-1,1.206944585E0
3.189784900E0,1.310275316E0,2.269013226E-1,1.196292043E0
3.191799060E0,1.268729925E0,1.022653878E-1,1.187237263E0
3.193813220E0,1.225586772E0,-3.036003746E-2,1.180312991E0
3.195766345E0,1.176584601E0,-1.581917703E-1,1.166997194E0
3.197780505E0,1.122256160E0,-2.940129936E-1,1.156877160E0
3.199764148E0,1.063666582E0,-4.367584288E-1,1.146224499E0
3.201747791E0,9.997506738E-1,-5.640575290E-1,1.124919295E0
3.203731433E0,9.331716895E-1,-6.700513363E-1,1.099885583E0
3.205715076E0,8.596684337E-1,-7.515440583E-1,1.071655989E0
3.207729236E0,7.829693556E-1,-7.968178391E-1,1.038632870E0
3.209712879E0,7.020092607E-1,-8.175904751E-1,1.000815988E0
3.211696521E0,6.173207760E-1,-8.096010089E-1,9.667274952E-1
3.213710681E0,5.347627401E-1,-7.819041014E-1,9.283779860E-1
3.215724841E0,4.564658105E-1,-7.488809228E-1,8.921589851E-1
3.217769519E0,3.771036267E-1,-7.126619220E-1,8.500810266E-1
3.219722644E0,3.067961633E-1,-6.519418359E-1,8.096010089E-1
3.221706287E0,2.359560728E-1,-5.576659441E-1,7.707188129E-1
3.223720447E0,1.656486243E-1,-4.479437172E-1,7.302387953E-1
3.225734607E0,9.587380290E-2,-3.398193717E-1,6.966829300E-1
3.227718250E0,2.450108156E-2,-2.460760921E-1,6.551376581E-1
3.229701892E0,-4.261057824E-2,-1.587243974E-1,6.189186573E-1
3.231716052E0,-1.022653878E-1,-7.776430249E-2,5.858954787E-1
3.233730212E0,-1.533980817E-1,-5.858954508E-3,5.486112237E-1
3.235713855E0,-1.992044598E-1,5.060006306E-2,5.193164349E-1
3.237728015E0,-2.386192381E-1,1.107875034E-1,4.932174385E-1
3.239711658E0,-2.705771625E-1,1.693770438E-1,4.745753109E-1
3.241725818E0,-2.988066673E-1,2.151834220E-1,4.559331834E-1
3.243678943E0,-3.179814517E-1,2.482066154E-1,4.367584288E-1
3.245662586E0,-3.249056637E-1,2.705771625E-1,4.197141826E-1
3.247646228E0,-3.291667104E-1,2.934803665E-1,4.048005044E-1
3.249660388E0,-3.270362020E-1,3.163835406E-1,3.936152160E-1
3.251644031E0,-3.169161677E-1,3.307646215E-1,3.818973005E-1
3.253627673E0,-2.956108749E-1,3.179814517E-1,3.733751774E-1
3.255611316E0,-2.764361203E-1,3.153182864E-1,3.627225459E-1
3.257655994E0,-2.508697808E-1,3.291667104E-1,3.542004228E-1
3.259609119E0,-2.242381722E-1,3.403519988E-1,3.467435837E-1
3.261592761E0,-1.938781291E-1,3.637878001E-1,3.328951299E-1
3.263606921E0,-1.667138934E-1,3.930825889E-1,3.233077526E-1
3.265621082E0,-1.400822699E-1,4.367584288E-1,3.121224940E-1
3.267604724E0,-1.155811921E-1,5.075985193E-1,3.036003709E-1
3.269588367E0,-9.800432622E-2,5.821670294E-1,2.956108749E-1
3.271602527E0,-8.149272949E-2,6.460828781E-1,2.812298238E-1
3.273616687E0,-6.870955974E-2,7.158577442E-1,2.577939928E-1
3.275569812E0,-5.858954415E-2,7.749798894E-1,2.354234457E-1
3.277583972E0,-5.273059011E-2,8.202536106E-1,2.077265680E-1
3.279567615E0,-4.740426689E-2,8.756473660E-1,1.704423130E-1
3.281551257E0,-4.367584363E-2,9.214537740E-1,1.368864775E-1
3.283534900E0,-4.261057824E-2,9.677927494E-1,1.038632840E-1
3.285549060E0,-4.740426689E-2,1.005077004E0,7.030745596E-2
3.287563220E0,-4.740426689E-2,1.043426514E0,3.036003746E-2
3.289546863E0,-5.752427876E-2,1.075384498E0,-1.065264456E-3
3.291530505E0,-6.870955974E-2,1.111603498E0,-4.101268202E-2
3.293544666E0,-8.735168725E-2,1.138767719E0,-7.030745596E-2
3.295558826E0,-1.097222418E-1,1.142496109E0,-1.012001261E-1
3.297572986E0,-1.278317273E-1,1.175519347E0,-1.363538504E-1
3.299526111E0,-1.544633508E-1,1.200020432E0,-1.608549356E-1
3.301540271E0,-1.784317940E-1,1.237304688E0,-1.778991669E-1
3.303554431E0,-1.997370869E-1,1.273523688E0,-1.997370869E-1
3.305568591E0,-2.237055302E-1,1.286839485E0,-2.194444835E-1
3.307521716E0,-2.412824035E-1,1.302285790E0,-2.380866110E-1
3.309505359E0,-2.588592768E-1,1.304948926E0,-2.498045117E-1
3.311519519E0,-2.716424465E-1,1.305481553E0,-2.615224123E-1
3.313503162E0,-2.849582434E-1,1.285774231E0,-2.790992856E-1
3.315486804E0,-2.924150825E-1,1.272991061E0,-2.854908705E-1
3.317500964E0,-2.929477394E-1,1.246892095E0,-2.924150825E-1
3.319484607E0,-2.998719513E-1,1.194694042E0,-3.030677438E-1
3.321468250E0,-2.913498282E-1,1.153148770E0,-2.972087860E-1
3.323451892E0,-2.838929892E-1,1.141963482E0,-2.934803665E-1
3.325466052E0,-2.695119083E-1,1.102016091E0,-2.833603323E-1
3.327449695E0,-2.503371537E-1,1.038632870E0,-2.604571581E-1
3.329463855E0,-2.242381722E-1,9.752495885E-1,-2.306297570E-1
3.331416980E0,-1.938781291E-1,9.241169095E-1,-1.922802329E-1
3.333400623E0,-1.661812514E-1,8.783105612E-1,-1.544633508E-1
3.335414783E0,-1.395496428E-1,8.309062719E-1,-1.161138266E-1
3.337459461E0,-1.161138266E-1,7.787083387E-1,-7.989483327E-2
3.339412586E0,-9.161274135E-2,7.211840153E-1,-4.900216311E-2
3.341396228E0,-7.137271762E-2,6.668555737E-1,-1.864212751E-2
3.343410388E0,-5.113269389E-2,6.290386319E-1,5.326322280E-3
3.345424548E0,-3.249056637E-2,5.848301649E-1,2.822950855E-2
3.347377673E0,-1.384843793E-2,5.251753926E-1,4.633900523E-2
3.349391834E0,5.326322280E-3,4.719121456E-1,6.764429063E-2
3.351375476E0,2.343581803E-2,4.106594622E-1,7.936219871E-2
3.353359119E0,4.314320907E-2,3.557983339E-1,8.681905270E-2
3.355373279E0,5.326322466E-2,3.041329980E-1,8.628641814E-2
3.357417957E0,6.657902896E-2,2.625876963E-1,7.936219871E-2
3.359371082E0,7.084008306E-2,2.253034264E-1,7.616640627E-2
3.361354724E0,7.776430249E-2,1.986718178E-1,6.498113275E-2
3.363368884E0,7.403588295E-2,1.864212751E-1,5.592638254E-2
3.365383045E0,7.190535218E-2,1.816275865E-1,4.474110901E-2
3.367366687E0,6.764429063E-2,1.773665249E-1,3.302319720E-2
3.369350330E0,5.805691332E-2,1.837581247E-1,2.237055451E-2
3.371333972E0,4.740426689E-2,1.885518134E-1,9.054748341E-3
3.373348132E0,3.462109342E-2,1.885518134E-1,-3.195793368E-3
3.375331775E0,1.651159860E-2,1.912149638E-1,-1.651159860E-2
3.377345935E0,-3.728425596E-3,1.896170676E-1,-3.036003746E-2
3.379329578E0,-2.876213938E-2,1.949433982E-1,-5.379585549E-2
3.381343738E0,-6.018744037E-2,2.024002522E-1,-7.350324839E-2
3.383327380E0,-9.480853379E-2,2.018676102E-1,-9.480853379E-2
3.385311023E0,-1.288969964E-1,2.077265680E-1,-1.139832959E-1
3.387294666E0,-1.619201899E-1,2.066612989E-1,-1.315601617E-1
3.389308826E0,-1.949433982E-1,1.976065636E-1,-1.470064968E-1
3.391261951E0,-2.221076339E-1,1.901497096E-1,-1.656486243E-1
3.393245593E0,-2.471413612E-1,1.778991669E-1,-1.805623323E-1
3.395259754E0,-2.673813701E-1,1.592570394E-1,-1.976065636E-1
3.397273914E0,-2.865561247E-1,1.416801661E-1,-2.183792144E-1
3.399227039E0,-3.014698327E-1,1.182443574E-1,-2.450108230E-1
3.401241199E0,-3.067961633E-1,1.033306494E-1,-2.636529505E-1
3.403285877E0,-3.078614175E-1,9.480853379E-2,-2.838929892E-1
3.405269519E0,-3.057309091E-1,9.001484513E-2,-2.961435318E-1
3.407283679E0,-2.966761589E-1,9.906959534E-2,-3.046656251E-1
3.409236804E0,-2.902845740E-1,1.139832959E-1,-3.062635362E-1
3.411220447E0,-2.743056118E-1,1.352885813E-1,-3.057309091E-1
3.413234607E0,-2.593919039E-1,1.491370201E-1,-3.036003709E-1
3.415248767E0,-2.359560728E-1,1.549959779E-1,-2.945456207E-1
3.417262927E0,-2.061286718E-1,1.581917703E-1,-2.902845740E-1
3.419216052E0,-1.789644361E-1,1.581917703E-1,-2.902845740E-1
3.421230212E0,-1.502022892E-1,1.656486243E-1,-2.860234976E-1
3.423244373E0,-1.182443574E-1,1.709749401E-1,-2.801645398E-1
3.425228015E0,-8.415589482E-2,1.768338978E-1,-2.673813701E-1
3.427211658E0,-4.580637068E-2,1.778991669E-1,-2.535329461E-1
3.429225818E0,-7.989482954E-3,1.763012707E-1,-2.455434501E-1
3.431178943E0,3.036003746E-2,1.731054783E-1,-2.332929224E-1
3.433162586E0,7.243798673E-2,1.709749401E-1,-2.263686955E-1
3.435176746E0,1.091896072E-1,1.661812514E-1,-2.205097377E-1
3.437221423E0,1.496696621E-1,1.672465205E-1,-2.130528986E-1
3.439144031E0,1.890844405E-1,1.629854590E-1,-2.119876295E-1
3.441158191E0,2.253034264E-1,1.603222936E-1,-2.087918371E-1
3.443172351E0,2.620550692E-1,1.576591432E-1,-2.109223604E-1
3.445186511E0,2.966761589E-1,1.486043930E-1,-2.125202566E-1
3.447139636E0,3.366235793E-1,1.470064968E-1,-2.173139453E-1
3.449153796E0,3.691141307E-1,1.416801661E-1,-2.215750068E-1
3.451167957E0,4.063983858E-1,1.379517466E-1,-2.338255495E-1
3.453182117E0,4.420847595E-1,1.320927888E-1,-2.450108230E-1
3.455135242E0,4.814995229E-1,1.272991002E-1,-2.561961114E-1
3.457149402E0,5.166532397E-1,1.209075153E-1,-2.652508616E-1
3.459133045E0,5.352953672E-1,1.161138266E-1,-2.705771625E-1
3.461116687E0,5.704491138E-1,9.906959534E-2,-2.812298238E-1
3.463100330E0,6.002765298E-1,7.030745596E-2,-2.908172011E-1
3.465083972E0,6.258428693E-1,1.438106969E-2,-3.025351167E-1
3.467098132E0,6.546050310E-1,-4.474110901E-2,-3.142530024E-1
3.469051257E0,6.828345060E-1,-9.054747969E-2,-3.227751255E-1
3.471034900E0,7.158577442E-1,-1.326254308E-1,-3.371562064E-1
3.473049060E0,7.488809228E-1,-1.709749401E-1,-3.446130455E-1
3.475063220E0,7.813714743E-1,-2.045307755E-1,-3.504720032E-1
3.477046863E0,8.143946528E-1,-2.460760921E-1,-3.563309610E-1
3.478999988E0,8.452873230E-1,-2.801645398E-1,-3.589941263E-1
3.481014148E0,8.751147389E-1,-3.259709179E-1,-3.627225459E-1
3.482997791E0,9.049421549E-1,-3.781688809E-1,-3.664509654E-1
3.484981433E0,9.331716895E-1,-4.399542212E-1,-3.685815036E-1
3.486965076E0,9.592706561E-1,-5.102616549E-1,-3.781688809E-1
3.488979236E0,9.853696227E-1,-5.811017752E-1,-3.882888854E-1
3.490993396E0,1.006142259E0,-6.593986750E-1,-4.000068009E-1
3.492946521E0,1.021588564E0,-7.387608886E-1,-4.143878818E-1
3.494930164E0,1.038100243E0,-8.191883564E-1,-4.314320982E-1
3.496974841E0,1.047687650E0,-9.038769007E-1,-4.522047639E-1
3.498958484E0,1.051416039E0,-9.960222840E-1,-4.777711034E-1
3.500911609E0,1.043959141E0,-1.102016091E0,-4.990763962E-1
3.502895252E0,1.034371734E0,-1.209607840E0,-5.230448246E-1
3.504909412E0,1.025849700E0,-1.311340570E0,-5.518069863E-1
3.506893054E0,1.016262293E0,-1.404018521E0,-5.752428174E-1
3.508907214E0,1.006142259E0,-1.481250167E0,-6.050702333E-1
3.510921375E0,9.997506738E-1,-1.548361897E0,-6.295713186E-1
3.512935535E0,9.906959534E-1,-1.598961949E0,-6.567355394E-1
3.514888660E0,9.901633263E-1,-1.639974594E0,-6.854977012E-1
3.516902820E0,9.827064872E-1,-1.663943052E0,-7.121292949E-1
3.518886462E0,9.784454107E-1,-1.674595714E0,-7.392935157E-1
3.520900623E0,9.736517072E-1,-1.672465205E0,-7.696535587E-1
3.522853748E0,9.725864530E-1,-1.662345171E0,-8.026767969E-1
3.524837390E0,9.683253765E-1,-1.638376713E0,-8.325041533E-1
3.526821033E0,9.645969868E-1,-1.607484102E0,-8.633968234E-1
3.528835193E0,9.608685374E-1,-1.570732474E0,-8.905611038E-1
3.530818836E0,9.518138170E-1,-1.525458694E0,-9.198558331E-1
3.532802478E0,9.443569183E-1,-1.479119658E0,-9.507485032E-1
3.534786121E0,9.384979606E-1,-1.426389098E0,-9.789780378E-1
3.536830798E0,9.214537740E-1,-1.377386928E0,-1.006674886E0
3.538783923E0,9.086706042E-1,-1.325721622E0,-1.035437107E0
3.540767566E0,8.894958496E-1,-1.267132044E0,-1.065797091E0
3.542751209E0,8.671252728E-1,-1.202150941E0,-1.090830803E0
3.544765369E0,8.436894417E-1,-1.128115058E0,-1.117995024E0
3.546749011E0,8.175904751E-1,-1.037567616E0,-1.144093990E0
3.548732654E0,7.909588814E-1,-9.475527406E-1,-1.168595076E0
3.550746814E0,7.627293468E-1,-8.522115946E-1,-1.189900398E0
3.552760974E0,7.329019308E-1,-7.478156686E-1,-1.212803602E0
3.554744617E0,6.966829300E-1,-6.450176239E-1,-1.234108925E0
3.556758777E0,6.609966159E-1,-5.486112237E-1,-1.249555230E0
3.558742420E0,6.221144199E-1,-4.447479248E-1,-1.258610010E0
3.560756580E0,5.885586143E-1,-3.291667104E-1,-1.272458434E0
3.562740222E0,5.667206645E-1,-2.008023560E-1,-1.286839485E0
3.564723865E0,5.470132828E-1,-5.805691332E-2,-1.303351045E0
3.566707507E0,5.352953672E-1,8.788431436E-2,-1.324656367E0
3.568721668E0,5.289037824E-1,2.375539690E-1,-1.334776402E0
3.570735828E0,5.283711553E-1,3.920173049E-1,-1.351820588E0
3.572719470E0,5.235774517E-1,5.390238166E-1,-1.368332148E0
3.574703113E0,5.230448246E-1,6.727145314E-1,-1.385909081E0
3.576747791E0,5.225121975E-1,7.941546440E-1,-1.406681657E0
3.578731433E0,5.139901042E-1,9.001484513E-1,-1.429052234E0
3.580715076E0,5.113269091E-1,9.896306992E-1,-1.446096539E0
3.582698718E0,5.081311464E-1,1.030110717E0,-1.456216455E0
3.584682361E0,5.102616549E-1,1.098287702E0,-1.475391269E0
3.586666004E0,5.225121975E-1,1.172856212E0,-1.493500710E0
3.588649646E0,5.464806557E-1,1.249022603E0,-1.513208151E0
3.590663806E0,5.768406987E-1,1.320927978E0,-1.528654456E0
3.592677966E0,6.114618182E-1,1.390170097E0,-1.544633508E0
3.594692127E0,6.503439546E-1,1.442368031E0,-1.561677694E0
3.596675769E0,6.865629554E-1,1.487641811E0,-1.569667220E0
3.598628894E0,7.233145833E-1,1.527056575E0,-1.576058745E0
3.600643054E0,7.574030161E-1,1.555818796E0,-1.576058745E0
3.602657214E0,7.936220169E-1,1.584048271E0,-1.566471338E0
3.604610339E0,8.255799413E-1,1.601092458E0,-1.541970253E0
3.606593982E0,8.463526368E-1,1.585113525E0,-1.506816626E0
3.608608142E0,8.655273914E-1,1.548894525E0,-1.464205980E0
3.610561267E0,8.809736967E-1,1.474326015E0,-1.402953267E0
3.612544910E0,8.916263580E-1,1.360875368E0,-1.318264723E0
3.614559070E0,9.022790194E-1,1.218129873E0,-1.221325755E0
3.616603748E0,9.044095278E-1,1.029045463E0,-1.124386668E0
3.618556873E0,8.932242393E-1,8.170578480E-1,-1.026914954E0
3.620540515E0,8.756473660E-1,5.965480804E-1,-9.374327064E-1
3.622554675E0,8.479505181E-1,3.978762627E-1,-8.538094759E-1
3.624568836E0,8.229168057E-1,2.652508616E-1,-7.856325507E-1
3.626552478E0,7.973504663E-1,1.912149638E-1,-7.297061682E-1
3.628536121E0,7.451524734E-1,1.241033077E-1,-6.860303283E-1
3.630550281E0,6.753776670E-1,4.793690145E-2,-6.098638773E-1
3.632564441E0,6.247776151E-1,2.024002373E-2,-5.384911895E-1
3.634548084E0,5.704491138E-1,2.130528912E-2,-4.868258536E-1
3.636562244E0,5.390238166E-1,7.882957160E-2,-4.522047639E-1
3.638545886E0,5.294364095E-1,1.699096859E-1,-4.293015897E-1
3.640560046E0,5.123922229E-1,2.572613657E-1,-4.255731404E-1
3.642543689E0,4.830974340E-1,3.526025414E-1,-4.394215941E-1
3.644527332E0,4.479437172E-1,4.623247683E-1,-4.554005563E-1
3.646510974E0,4.197141826E-1,5.944175720E-1,-4.799016416E-1
3.648525134E0,3.882888854E-1,7.403587699E-1,-4.974785149E-1
3.650508777E0,3.504720032E-1,8.852347732E-1,-5.097290277E-1
3.652492420E0,3.163835406E-1,1.010936022E0,-5.241101384E-1
3.654506580E0,2.631203234E-1,1.085504532E0,-5.427522659E-1
3.656551257E0,2.189118415E-1,1.098820329E0,-5.507417321E-1
3.658504382E0,2.018676102E-1,1.092961311E0,-5.400890708E-1
3.660488025E0,2.018676102E-1,1.060470819E0,-5.342301130E-1
3.662502185E0,2.050634027E-1,1.004011750E0,-5.219795704E-1
3.664516345E0,2.226402760E-1,9.209211469E-1,-4.964132309E-1
3.666499988E0,2.460760921E-1,7.792409658E-1,-4.569984376E-1
3.668483630E0,2.902845740E-1,6.061354876E-1,-4.042678475E-1
3.670497791E0,3.446130455E-1,4.548679292E-1,-3.334277868E-1
3.672511951E0,4.005394280E-1,3.233077526E-1,-2.588592768E-1
3.674465076E0,4.506068528E-1,2.008023560E-1,-1.720402092E-1
3.676479236E0,4.969458580E-1,7.456851006E-2,-7.669904083E-2
3.678462879E0,5.310343504E-1,-3.408846259E-2,-5.858954508E-3
3.680446521E0,5.656554103E-1,-8.202536404E-2,5.486112088E-2
3.682430164E0,5.858954787E-1,-3.888215125E-2,9.853696078E-2
3.684444324E0,5.784385800E-1,6.178534031E-2,1.123853996E-1
3.686427966E0,5.491438508E-1,1.518001854E-1,9.267801046E-2
3.688442127E0,5.102616549E-1,2.247707993E-1,4.154531285E-2
3.690425769E0,4.660531878E-1,2.849582434E-1,-2.183792181E-2
3.692409412E0,4.298342168E-1,3.227751255E-1,-7.243798673E-2
3.694423572E0,4.069310129E-1,3.472762108E-1,-7.084008306E-2
3.696468250E0,3.882888854E-1,3.542004228E-1,-4.687163606E-2
3.698421375E0,3.744404614E-1,3.643204570E-1,-2.237055451E-2
3.700405017E0,3.595267534E-1,3.861583769E-1,1.065264456E-3
3.702419177E0,3.435477912E-1,4.340952635E-1,2.609897964E-2
3.704433337E0,3.206445873E-1,5.012069345E-1,6.018744037E-2
3.706416980E0,3.025351167E-1,5.560680628E-1,8.841694891E-2
3.708400623E0,2.833603323E-1,5.890912414E-1,1.129180342E-1
3.710414783E0,2.705771625E-1,6.263754964E-1,1.320927888E-1
3.712428943E0,2.615224123E-1,6.625944972E-1,1.576591432E-1
3.714412586E0,2.514024079E-1,7.084008455E-1,1.837581247E-1
3.716426746E0,2.482066154E-1,7.707188129E-1,2.109223604E-1
3.718410388E0,2.492718846E-1,8.442220688E-1,2.370213419E-1
3.720424548E0,2.482066154E-1,9.262474179E-1,2.631203234E-1
3.722438709E0,2.460760921E-1,1.013599157E0,2.881540358E-1
3.724391834E0,2.423476577E-1,1.097222447E0,3.089267015E-1
3.726375476E0,2.380866110E-1,1.135039330E0,3.110572100E-1
3.728389636E0,2.348908186E-1,1.218662500E0,3.222424984E-1
3.730403796E0,2.247707993E-1,1.291100502E0,3.286340833E-1
3.732387439E0,2.151834220E-1,1.350222707E0,3.291667104E-1
3.734371082E0,2.039981484E-1,1.374723792E0,3.222424984E-1
3.736385242E0,1.853560209E-1,1.335309029E0,3.158509135E-1
3.738368884E0,1.704423130E-1,1.266066790E0,3.179814517E-1
3.740352527E0,1.592570394E-1,1.174454093E0,3.328951299E-1
3.742336170E0,1.533980817E-1,1.062601328E0,3.557983339E-1
3.744350330E0,1.432780623E-1,9.294432402E-1,3.952131271E-1
3.746333972E0,1.384843737E-1,8.005462289E-1,4.351605177E-1
3.748317615E0,1.395496428E-1,6.950850487E-1,4.729774296E-1
3.750331775E0,1.368864775E-1,5.912217498E-1,5.214469433E-1
3.752345935E0,1.384843737E-1,4.964132309E-1,5.656554103E-1
3.754360095E0,1.368864775E-1,3.968110085E-1,6.002765298E-1
3.756343738E0,1.480717659E-1,3.286340833E-1,6.343649626E-1
3.758296863E0,1.565938741E-1,2.242381722E-1,6.407565475E-1
3.760311023E0,1.763012707E-1,1.363538504E-1,6.386260390E-1
3.762294666E0,1.954760253E-1,9.321063757E-2,6.380934119E-1
3.764278308E0,2.093244642E-1,7.403588295E-2,6.375607848E-1
3.766261951E0,2.316950262E-1,8.096009493E-2,6.444849968E-1
3.768276111E0,2.460760921E-1,1.033306494E-1,6.450176239E-1
3.770229236E0,2.545982003E-1,1.230380461E-1,6.498113275E-1
3.772212879E0,2.593919039E-1,7.616640627E-2,6.167881489E-1
3.774227039E0,2.806971967E-1,5.912217870E-2,5.954828262E-1
3.776271716E0,2.913498282E-1,-5.858954508E-3,5.571333170E-1
3.778224841E0,3.137203753E-1,-2.663161233E-2,5.230448246E-1
3.780208484E0,3.270362020E-1,-6.178534031E-2,4.985437691E-1
3.782222644E0,3.323625028E-1,-1.262338310E-1,4.426173866E-1
3.784236804E0,3.424825370E-1,-1.454086006E-1,4.026699662E-1
3.786220447E0,3.446130455E-1,-1.635181010E-1,3.659183383E-1
3.788204089E0,3.398193717E-1,-2.141181529E-1,3.153182864E-1
3.790218250E0,3.350256681E-1,-2.711097896E-1,2.545982003E-1
3.792232410E0,3.270362020E-1,-3.137203753E-1,1.885518134E-1
3.794216052E0,3.195793331E-1,-3.243730366E-1,1.203748807E-1
3.796230212E0,3.041329980E-1,-3.408846259E-1,5.113269389E-2
3.798213855E0,2.796319127E-1,-3.542004228E-1,-1.970739290E-2
3.800228015E0,2.583266199E-1,-3.552657068E-1,-9.267801046E-2
3.802272693E0,2.279665917E-1,-3.595267534E-1,-1.741707325E-1
3.804195300E0,1.938781291E-1,-3.744404614E-1,-2.524676621E-1
3.806178943E0,1.629854590E-1,-4.010720551E-1,-3.355582952E-1
3.808162586E0,1.331580579E-1,-4.298342168E-1,-4.266384244E-1
3.810176746E0,9.960222989E-2,-4.724447727E-1,-5.022721887E-1
3.812190906E0,6.444849819E-2,-5.283711553E-1,-5.826996565E-1
3.814144031E0,3.355583176E-2,-5.779059529E-1,-6.636597514E-1
3.816158191E0,5.326322280E-3,-6.258428693E-1,-7.286409140E-1
3.818141834E0,-1.810949668E-2,-6.892260909E-1,-7.936220169E-1
3.820125476E0,-4.048004746E-2,-7.590008974E-1,-8.468852639E-1
3.822109119E0,-5.805691332E-2,-8.420915604E-1,-9.006810784E-1
3.824092761E0,-6.711166352E-2,-9.379653335E-1,-9.422264099E-1
3.826076404E0,-9.214537591E-2,-1.084439158E0,-1.009338021E0
3.828060046E0,-1.155811921E-1,-1.239435196E0,-1.089232922E0
3.830043689E0,-1.182443574E-1,-1.398159623E0,-1.188302517E0
3.832057849E0,-1.613875628E-1,-1.593103051E0,-1.286306858E0
3.834072009E0,-2.423476577E-1,-1.798699021E0,-1.373125911E0
3.836055652E0,-3.403519988E-1,-1.974467635E0,-1.432780743E0
3.838008777E0,-4.250405133E-1,-2.137453079E0,-1.476456523E0
3.840022937E0,-4.916195571E-1,-2.256762743E0,-1.522262931E0
3.842006580E0,-5.331648588E-1,-2.327602863E0,-1.529719710E0
3.843990222E0,-5.294364095E-1,-2.390985966E0,-1.503088117E0
3.845973865E0,-4.692489803E-1,-2.432531357E0,-1.434378624E0
3.847988025E0,-3.765709996E-1,-2.457565069E0,-1.304416299E0
3.849971668E0,-2.801645398E-1,-2.494849443E0,-1.127049804E0
3.851955310E0,-2.434129268E-1,-2.526807308E0,-1.029578090E0
3.853969470E0,-1.789644361E-1,-2.614691496E0,-8.229168057E-1
3.856014148E0,-1.022653878E-1,-2.718022346E0,-4.809668958E-1
3.857967273E0,-9.161274135E-2,-2.747849703E0,-3.755057156E-1
3.859950916E0,-7.936219871E-2,-2.790992975E0,-1.661812514E-1
3.861934558E0,-6.764429063E-2,-2.812830687E0,3.249056637E-2
3.863948718E0,-5.965480953E-2,-2.796319246E0,2.013349831E-1
3.865932361E0,-9.427590668E-2,-2.654106379E0,3.254382908E-1
3.867916004E0,-1.533980817E-1,-2.450108290E0,3.946804702E-1
3.869930164E0,-2.258360684E-1,-2.242381573E0,4.159857631E-1
3.871944324E0,-2.865561247E-1,-2.037318230E0,4.021373391E-1
3.873958484E0,-3.456783295E-1,-1.837048531E0,3.595267534E-1
3.875942127E0,-4.117247164E-1,-1.634648323E0,3.051982522E-1
3.877925769E0,-4.719121456E-1,-1.438107014E0,2.476739883E-1
3.879939929E0,-5.257080197E-1,-1.243163586E0,1.890844405E-1
3.881923572E0,-5.693838596E-1,-1.029045463E0,1.347559541E-1
3.883907214E0,-5.992112756E-1,-8.069378138E-1,8.468852192E-2
3.885890857E0,-6.162554622E-1,-5.725796223E-1,3.249056637E-2
3.887905017E0,-6.205165386E-1,-3.526025414E-1,-1.491370238E-2
3.889919177E0,-6.194512844E-1,-1.491370201E-1,-5.858954415E-2
3.891872302E0,-6.162554622E-1,2.237055451E-2,-1.075917110E-1
3.893855945E0,-6.109291911E-1,1.651159972E-1,-1.539307088E-1
3.895900623E0,-5.992112756E-1,2.668487430E-1,-2.002697140E-1
3.897884265E0,-5.853627920E-1,3.334277868E-1,-2.428802997E-1
3.899837390E0,-5.693838596E-1,3.818973005E-1,-2.838929892E-1
3.901821033E0,-5.587311983E-1,4.016047120E-1,-3.206445873E-1
3.903835193E0,-5.587311983E-1,3.936152160E-1,-3.579288721E-1
3.905818836E0,-5.635249019E-1,3.691141307E-1,-3.930825889E-1
3.907802478E0,-5.842975378E-1,3.051982522E-1,-4.293015897E-1
3.909816638E0,-6.141249537E-1,2.237055302E-1,-4.596616030E-1
3.911830798E0,-6.519418359E-1,1.166464612E-1,-4.793690145E-1
3.913783923E0,-6.908239722E-1,8.522115648E-3,-4.958806038E-1
3.915798084E0,-7.329019308E-1,-8.735168725E-2,-5.038700700E-1
3.917781726E0,-7.653924823E-1,-1.709749401E-1,-5.038700700E-1
3.919765369E0,-7.984157205E-1,-2.290318608E-1,-5.086637735E-1
3.921749011E0,-8.218515515E-1,-2.631203234E-1,-5.118595958E-1
3.923732654E0,-8.335694075E-1,-2.748382390E-1,-5.198490620E-1
3.925746814E0,-8.378304839E-1,-2.732403278E-1,-5.352953672E-1
3.927730457E0,-8.372978568E-1,-2.514024079E-1,-5.635249019E-1
3.929714099E0,-8.330367804E-1,-2.130528986E-1,-5.960154533E-1
3.931728259E0,-8.223841786E-1,-1.619201899E-1,-6.258428693E-1
3.933742420E0,-8.096010089E-1,-9.853696078E-2,-6.583334208E-1
3.935756580E0,-7.962851524E-1,-2.290318534E-2,-6.908239722E-1
3.937709705E0,-7.797735929E-1,5.486112088E-2,-7.318366766E-1
3.939723865E0,-7.696535587E-1,1.400822699E-1,-7.616640925E-1
3.941738025E0,-7.691209316E-1,2.162486911E-1,-7.845672965E-1
3.943752185E0,-7.946872711E-1,2.700445354E-1,-7.824367285E-1
3.945705310E0,-8.570052385E-1,2.471413612E-1,-7.515440583E-1
3.947719470E0,-9.480853677E-1,1.549959779E-1,-7.350324988E-1
3.949733630E0,-1.043426514E0,3.408846259E-2,-7.451524734E-1
3.951717273E0,-1.133973956E0,-7.723167539E-2,-7.808388472E-1
3.953700916E0,-1.219727755E0,-1.677791476E-1,-8.447546959E-1
3.955715076E0,-1.298557401E0,-2.247707993E-1,-9.182579517E-1
3.957698718E0,-1.386441708E0,-2.551308274E-1,-9.853696227E-1
3.959682361E0,-1.467934370E0,-2.583266199E-1,-1.048752904E0
3.961666004E0,-1.540372372E0,-2.322276533E-1,-1.099885583E0
3.963680164E0,-1.614940882E0,-1.853560209E-1,-1.143028736E0
3.965663806E0,-1.677791476E0,-1.182443574E-1,-1.194161415E0
3.967677966E0,-1.742772698E0,-3.994741663E-2,-1.248489976E0
